File: data/Jesus_data/CO_Removal.DTA
EXPLAIN
TAG	CV
TITLE	LABEL	Cyclic Voltammetry	Test Identifier
DATE	LABEL	7/17/2023	Date
TIME	LABEL	20:51:04	Time
NOTES	NOTES	1	Notes...

PSTAT	PSTAT	IFC1010-20234	Potentiostat
VINIT	POTEN	-1.27000E-001	F	Initial E (V)
VLIMIT1	POTEN	7.74000E-001	F	Scan Limit 1 (V)
VLIMIT2	POTEN	-2.27000E-001	F	Scan Limit 2 (V)
VFINAL	POTEN	-1.27000E-001	F	Final E (V)
SCANRATE	QUANT	4.99999E+001	Scan Rate (mV/s)
STEPSIZE	QUANT	2.00000E+000	Step Size (mV)
CYCLES	IQUANT	3	Cycles (#)
IMODE	SELECTOR	1	I/E Range Mode
IRANGE	QUANT	2.00000E+000	Max Current (mA)
AREA	QUANT	1.00000E+000	Sample Area (cm^2)
EQDELAY	QUANT	0.00000E+000	Equil. Time (s)
IRCOMP	SELECTOR	2	IRComp
PFCOR	QUANT	3.36300E+001	PF Corr. (ohm)
SAMPLINGMODE	SELECTOR	2	Sampling Mode
EOC	QUANT	0	Open Circuit (V)
ELECTRODETYPE	SELECTOR	0	Electrode Type
STRIPPING	TOGGLE	F	Used for Stripping
POLARITY	TOGGLE	F	Signal Polarity
SEQUENCER	TOGGLE	TRUE	Run as Sequence
PSTATMODEL	IQUANT	64	Pstat Model
PSTATSECTION	LABEL	IFC1010-20234	Pstat Section
PSTATSERIALNO	LABEL	20234	Pstat Serial Number
CTRLMODE	IQUANT	1	Control Mode
ELECTROMETER	IQUANT	0	RE=0 or CS=1
IESTAB	IQUANT	2	I/E Stability
CASPEED	IQUANT	4	Control Amp Speed
CONVENTION	IQUANT	1	Current Convention
ICHRANGE	IQUANT	2	Ich Range
ICHRANGEMODE	TOGGLE	F	Ich Auto Range
ICHOFFSETENABLE	TOGGLE	F	Ich Offset Enable
ICHOFFSET	QUANT	0	Ich Offset (V)
ICHFILTER	IQUANT	3	Ich Filter
VCHRANGE	IQUANT	2	Vch Range
VCHRANGEMODE	TOGGLE	F	Vch Auto Range
VCHOFFSETENABLE	TOGGLE	F	Vch Offset Enable
VCHOFFSET	QUANT	0	Vch Offset (V)
VCHFILTER	IQUANT	1	Vch Filter
IERANGELOWERLIMIT	IQUANT	4	I/E Range Lower Limit
IERANGEMODE	TOGGLE	F	I/E AutoRange
IERANGE	IQUANT	10	I/E Range
ACHSELECT	IQUANT	0	Ach Select
ACHRANGE	IQUANT	2	Ach Range
ACHOFFSETENABLE	TOGGLE	F	Ach Offset Enable
ACHOFFSET	QUANT	0	Ach Offset (V)
ACHFILTER	IQUANT	1	Ach Filter
SENSECABLEID	IQUANT	14	Sense Cable ID
PWRCABLEID	IQUANT	14	Power Cable ID
DCCALDATE	LABEL	7/15/2022	DC Calibration Date
ACCALDATE	LABEL	7/8/2020	AC Calibration Date
FRAMEWORKVERSION	LABEL	7.8.2	Framework Version
INSTRUMENTVERSION	LABEL	4.40	Instrument Version
CURVE1	TABLE
	Pt	T	Vf	Im	Vu	Sig	Ach	IERange	Over	Temp
	#	s	V vs. Ref.	A	V	V	V	#	bits	deg C
	0	0.04	-1.27017E-001	-5.93122E-007	0.00000E+000	-1.26993E-001	0.00000E+000	10	...........	1505.21
	2	0.12	-1.23009E-001	-3.51706E-008	0.00000E+000	-1.22993E-001	0.00000E+000	10	...........	1505.12
	4	0.2	-1.19031E-001	2.05552E-008	0.00000E+000	-1.18993E-001	0.00000E+000	10	...........	1505.12
	6	0.28	-1.15013E-001	3.01438E-008	0.00000E+000	-1.14994E-001	0.00000E+000	10	...........	1505.12
	8	0.36	-1.11022E-001	1.76059E-007	0.00000E+000	-1.10994E-001	0.00000E+000	10	...........	1505.12
	10	0.44	-1.07029E-001	2.27060E-007	0.00000E+000	-1.06994E-001	0.00000E+000	10	...........	1505.12
	12	0.52	-1.03028E-001	2.83341E-007	0.00000E+000	-1.02995E-001	0.00000E+000	10	...........	1505.12
	14	0.6	-9.90059E-002	3.02657E-007	0.00000E+000	-9.89950E-002	0.00000E+000	10	...........	1505.12
	16	0.68	-9.50030E-002	4.02575E-007	0.00000E+000	-9.49953E-002	0.00000E+000	10	...........	1505.12
	18	0.76	-9.10258E-002	3.82702E-007	0.00000E+000	-9.09956E-002	0.00000E+000	10	...........	1505.12
	20	0.84	-8.70123E-002	3.83536E-007	0.00000E+000	-8.69959E-002	0.00000E+000	10	...........	1505.12
	22	0.92	-8.30142E-002	3.93820E-007	0.00000E+000	-8.29962E-002	0.00000E+000	10	...........	1505.12
	24	1	-7.90321E-002	3.95904E-007	0.00000E+000	-7.89966E-002	0.00000E+000	10	...........	1505.12
	26	1.08	-7.50111E-002	3.78255E-007	0.00000E+000	-7.49969E-002	0.00000E+000	10	...........	1505.15
	28	1.16	-7.10126E-002	4.42458E-007	0.00000E+000	-7.09972E-002	0.00000E+000	10	...........	1505.21
	30	1.24	-6.70171E-002	4.56216E-007	0.00000E+000	-6.69975E-002	0.00000E+000	10	...........	1505.21
	32	1.32	-6.30093E-002	4.62886E-007	0.00000E+000	-6.29978E-002	0.00000E+000	10	...........	1505.21
	34	1.4	-5.90225E-002	4.88039E-007	0.00000E+000	-5.89981E-002	0.00000E+000	10	...........	1505.21
	36	1.48	-5.50245E-002	5.10969E-007	0.00000E+000	-5.49984E-002	0.00000E+000	10	...........	1505.21
	38	1.56	-5.10161E-002	4.72058E-007	0.00000E+000	-5.09987E-002	0.00000E+000	10	...........	1505.21
	40	1.64	-4.70176E-002	4.35232E-007	0.00000E+000	-4.69991E-002	0.00000E+000	10	...........	1505.21
	42	1.72	-4.30227E-002	4.36482E-007	0.00000E+000	-4.29994E-002	0.00000E+000	10	...........	1505.21
	44	1.8	-3.90141E-002	4.91652E-007	0.00000E+000	-3.89997E-002	0.00000E+000	10	...........	1505.21
	46	1.88	-3.49972E-002	4.69973E-007	0.00000E+000	-3.50000E-002	0.00000E+000	10	...........	1505.21
	48	1.96	-3.10128E-002	4.20362E-007	0.00000E+000	-3.10003E-002	0.00000E+000	10	...........	1505.21
	50	2.04	-2.70202E-002	4.65526E-007	0.00000E+000	-2.70006E-002	0.00000E+000	10	...........	1505.21
	52	2.12	-2.29963E-002	5.11802E-007	0.00000E+000	-2.30009E-002	0.00000E+000	10	...........	1505.03
	54	2.2	-1.89985E-002	4.66499E-007	0.00000E+000	-1.90012E-002	0.00000E+000	10	...........	1505.03
	56	2.28	-1.50048E-002	4.82202E-007	0.00000E+000	-1.50016E-002	0.00000E+000	10	...........	1505.03
	58	2.36	-1.09920E-002	4.91096E-007	0.00000E+000	-1.10019E-002	0.00000E+000	10	...........	1505.03
	60	2.44	-7.00933E-003	4.99017E-007	0.00000E+000	-7.00217E-003	0.00000E+000	10	...........	1505.03
	62	2.52	-3.01131E-003	4.62886E-007	0.00000E+000	-3.00249E-003	0.00000E+000	10	...........	1505.03
	64	2.6	1.00011E-003	4.40651E-007	0.00000E+000	9.97186E-004	0.00000E+000	10	...........	1505.03
	66	2.68	4.97918E-003	4.52324E-007	0.00000E+000	4.99687E-003	0.00000E+000	10	...........	1505.03
	68	2.76	8.98184E-003	4.65526E-007	0.00000E+000	8.99655E-003	0.00000E+000	10	...........	1505.03
	70	2.84	1.30155E-002	5.08884E-007	0.00000E+000	1.29963E-002	0.00000E+000	10	...........	1505.03
	72	2.92	1.69956E-002	5.16110E-007	0.00000E+000	1.69959E-002	0.00000E+000	10	...........	1505.03
	74	3	2.09919E-002	4.77061E-007	0.00000E+000	2.09956E-002	0.00000E+000	10	...........	1505.03
	76	3.08	2.49940E-002	5.04854E-007	0.00000E+000	2.49953E-002	0.00000E+000	10	...........	1505.16
	78	3.16	2.90029E-002	5.48767E-007	0.00000E+000	2.89950E-002	0.00000E+000	10	...........	1505.40
	80	3.24	3.29932E-002	5.76839E-007	0.00000E+000	3.29947E-002	0.00000E+000	10	...........	1505.40
	82	3.32	3.69773E-002	5.96155E-007	0.00000E+000	3.69944E-002	0.00000E+000	10	...........	1505.40
	84	3.4	4.09927E-002	6.10469E-007	0.00000E+000	4.09941E-002	0.00000E+000	10	...........	1505.40
	86	3.48	4.49940E-002	5.93376E-007	0.00000E+000	4.49937E-002	0.00000E+000	10	...........	1505.40
	88	3.56	4.89849E-002	6.17834E-007	0.00000E+000	4.89934E-002	0.00000E+000	10	...........	1505.40
	90	3.64	5.30072E-002	6.29507E-007	0.00000E+000	5.29931E-002	0.00000E+000	10	...........	1505.40
	92	3.72	5.70010E-002	6.61191E-007	0.00000E+000	5.69928E-002	0.00000E+000	10	...........	1505.40
	94	3.8	6.09901E-002	7.30258E-007	0.00000E+000	6.09925E-002	0.00000E+000	10	...........	1505.40
	96	3.88	6.49856E-002	7.43043E-007	0.00000E+000	6.49922E-002	0.00000E+000	10	...........	1505.40
	98	3.96	6.89662E-002	7.10802E-007	0.00000E+000	6.89919E-002	0.00000E+000	10	...........	1505.40
	100	4.04	7.29628E-002	7.64861E-007	0.00000E+000	7.29916E-002	0.00000E+000	10	...........	1505.40
	102	4.12	7.70066E-002	8.43794E-007	0.00000E+000	7.69912E-002	0.00000E+000	10	...........	1505.03
	104	4.2	8.09831E-002	8.42821E-007	0.00000E+000	8.09909E-002	0.00000E+000	10	...........	1505.03
	106	4.28	8.49986E-002	9.38847E-007	0.00000E+000	8.49906E-002	0.00000E+000	10	...........	1505.03
	108	4.36	8.89759E-002	9.71782E-007	0.00000E+000	8.89903E-002	0.00000E+000	10	...........	1505.03
	110	4.44	9.29919E-002	1.03279E-006	0.00000E+000	9.29900E-002	0.00000E+000	10	...........	1505.03
	112	4.52	9.69802E-002	1.10964E-006	0.00000E+000	9.69897E-002	0.00000E+000	10	...........	1505.03
	114	4.6	1.00985E-001	1.16133E-006	0.00000E+000	1.00989E-001	0.00000E+000	10	...........	1505.03
	116	4.68	1.05002E-001	1.23554E-006	0.00000E+000	1.04989E-001	0.00000E+000	10	...........	1505.03
	118	4.76	1.09011E-001	1.27793E-006	0.00000E+000	1.08989E-001	0.00000E+000	10	...........	1505.03
	120	4.84	1.12992E-001	1.37381E-006	0.00000E+000	1.12988E-001	0.00000E+000	10	...........	1505.03
	122	4.92	1.17007E-001	1.44135E-006	0.00000E+000	1.16988E-001	0.00000E+000	10	...........	1505.03
	124	5	1.20989E-001	1.47359E-006	0.00000E+000	1.20988E-001	0.00000E+000	10	...........	1505.03
	126	5.08	1.25001E-001	1.61589E-006	0.00000E+000	1.24987E-001	0.00000E+000	10	...........	1505.19
	128	5.16	1.29013E-001	1.69733E-006	0.00000E+000	1.28987E-001	0.00000E+000	10	...........	1505.49
	130	5.24	1.33007E-001	1.81267E-006	0.00000E+000	1.32987E-001	0.00000E+000	10	...........	1505.49
	132	5.32	1.36996E-001	1.96928E-006	0.00000E+000	1.36987E-001	0.00000E+000	10	...........	1505.49
	134	5.4	1.41022E-001	2.14758E-006	0.00000E+000	1.40986E-001	0.00000E+000	10	...........	1505.49
	136	5.48	1.44986E-001	2.30670E-006	0.00000E+000	1.44986E-001	0.00000E+000	10	...........	1505.49
	138	5.56	1.48989E-001	2.50639E-006	0.00000E+000	1.48986E-001	0.00000E+000	10	...........	1505.49
	140	5.64	1.53004E-001	2.68983E-006	0.00000E+000	1.52985E-001	0.00000E+000	10	...........	1505.49
	142	5.72	1.57020E-001	2.86048E-006	0.00000E+000	1.56985E-001	0.00000E+000	10	...........	1505.49
	144	5.8	1.61013E-001	3.06531E-006	0.00000E+000	1.60985E-001	0.00000E+000	10	...........	1505.49
	146	5.88	1.65007E-001	3.30281E-006	0.00000E+000	1.64984E-001	0.00000E+000	10	...........	1505.49
	148	5.96	1.69004E-001	3.51654E-006	0.00000E+000	1.68984E-001	0.00000E+000	10	...........	1505.49
	150	6.04	1.73007E-001	3.74097E-006	0.00000E+000	1.72984E-001	0.00000E+000	10	...........	1505.49
	152	6.12	1.76994E-001	4.00654E-006	0.00000E+000	1.76983E-001	0.00000E+000	10	...........	1505.03
	154	6.2	1.81012E-001	4.27460E-006	0.00000E+000	1.80983E-001	0.00000E+000	10	...........	1505.03
	156	6.28	1.85001E-001	4.56782E-006	0.00000E+000	1.84983E-001	0.00000E+000	10	...........	1505.03
	158	6.36	1.89005E-001	4.89940E-006	0.00000E+000	1.88982E-001	0.00000E+000	10	...........	1505.03
	160	6.44	1.93019E-001	5.17802E-006	0.00000E+000	1.92982E-001	0.00000E+000	10	...........	1505.03
	162	6.52	1.96998E-001	5.54476E-006	0.00000E+000	1.96982E-001	0.00000E+000	10	...........	1505.03
	164	6.6	2.01001E-001	5.92330E-006	0.00000E+000	2.00982E-001	0.00000E+000	10	...........	1505.03
	166	6.68	2.05016E-001	6.34145E-006	0.00000E+000	2.04981E-001	0.00000E+000	10	...........	1505.03
	168	6.76	2.09011E-001	6.76558E-006	0.00000E+000	2.08981E-001	0.00000E+000	10	...........	1505.03
	170	6.84	2.13004E-001	7.17234E-006	0.00000E+000	2.12981E-001	0.00000E+000	10	...........	1505.03
	172	6.92	2.16995E-001	7.63940E-006	0.00000E+000	2.16980E-001	0.00000E+000	10	...........	1505.03
	174	7	2.21014E-001	8.06881E-006	0.00000E+000	2.20980E-001	0.00000E+000	10	...........	1505.03
	176	7.08	2.25015E-001	8.60828E-006	0.00000E+000	2.24980E-001	0.00000E+000	10	...........	1505.20
	178	7.16	2.29009E-001	9.14135E-006	0.00000E+000	2.28979E-001	0.00000E+000	10	...........	1505.49
	180	7.24	2.33020E-001	9.59856E-006	0.00000E+000	2.32979E-001	0.00000E+000	10	...........	1505.49
	182	7.32	2.37020E-001	1.01436E-005	0.00000E+000	2.36979E-001	0.00000E+000	10	...........	1505.49
	184	7.4	2.41003E-001	1.06711E-005	0.00000E+000	2.40978E-001	0.00000E+000	10	...........	1505.49
	186	7.48	2.45008E-001	1.11881E-005	0.00000E+000	2.44978E-001	0.00000E+000	10	...........	1505.49
	188	7.56	2.49000E-001	1.17432E-005	0.00000E+000	2.48978E-001	0.00000E+000	10	...........	1505.49
	190	7.64	2.52987E-001	1.22122E-005	0.00000E+000	2.52977E-001	0.00000E+000	10	...........	1505.49
	192	7.72	2.57015E-001	1.27045E-005	0.00000E+000	2.56977E-001	0.00000E+000	10	...........	1505.49
	194	7.8	2.61026E-001	1.31860E-005	0.00000E+000	2.60977E-001	0.00000E+000	10	...........	1505.49
	196	7.88	2.65013E-001	1.36305E-005	0.00000E+000	2.64977E-001	0.00000E+000	10	...........	1505.49
	198	7.96	2.69030E-001	1.41418E-005	0.00000E+000	2.68976E-001	0.00000E+000	10	...........	1505.49
	200	8.04	2.73005E-001	1.45290E-005	0.00000E+000	2.72976E-001	0.00000E+000	10	...........	1505.49
	202	8.12	2.77001E-001	1.48401E-005	0.00000E+000	2.76976E-001	0.00000E+000	10	...........	1505.03
	204	8.2	2.81005E-001	1.51971E-005	0.00000E+000	2.80975E-001	0.00000E+000	10	...........	1505.03
	206	8.28	2.85023E-001	1.54521E-005	0.00000E+000	2.84975E-001	0.00000E+000	10	...........	1505.03
	208	8.36	2.89020E-001	1.56833E-005	0.00000E+000	2.88975E-001	0.00000E+000	10	...........	1505.03
	210	8.44	2.93012E-001	1.57709E-005	0.00000E+000	2.92974E-001	0.00000E+000	10	...........	1505.03
	212	8.52	2.97063E-001	1.58276E-005	0.00000E+000	2.97024E-001	0.00000E+000	10	...........	1505.03
	214	8.6	3.01067E-001	1.58548E-005	0.00000E+000	3.01024E-001	0.00000E+000	10	...........	1505.03
	216	8.68	3.05052E-001	1.58102E-005	0.00000E+000	3.05023E-001	0.00000E+000	10	...........	1505.03
	218	8.76	3.09070E-001	1.56799E-005	0.00000E+000	3.09023E-001	0.00000E+000	10	...........	1505.03
	220	8.84	3.13058E-001	1.54806E-005	0.00000E+000	3.13023E-001	0.00000E+000	10	...........	1505.03
	222	8.92	3.17077E-001	1.53369E-005	0.00000E+000	3.17022E-001	0.00000E+000	10	...........	1505.03
	224	9	3.21089E-001	1.51048E-005	0.00000E+000	3.21022E-001	0.00000E+000	10	...........	1505.03
	226	9.08	3.25059E-001	1.48582E-005	0.00000E+000	3.25022E-001	0.00000E+000	10	...........	1505.21
	228	9.16	3.29052E-001	1.46154E-005	0.00000E+000	3.29022E-001	0.00000E+000	10	...........	1505.49
	230	9.24	3.33068E-001	1.43412E-005	0.00000E+000	3.33021E-001	0.00000E+000	10	...........	1505.49
	232	9.32	3.37059E-001	1.40569E-005	0.00000E+000	3.37021E-001	0.00000E+000	10	...........	1505.49
	234	9.4	3.41069E-001	1.38766E-005	0.00000E+000	3.41021E-001	0.00000E+000	10	...........	1505.49
	236	9.48	3.45065E-001	1.37093E-005	0.00000E+000	3.45020E-001	0.00000E+000	10	...........	1505.49
	238	9.56	3.49064E-001	1.34606E-005	0.00000E+000	3.49020E-001	0.00000E+000	10	...........	1505.49
	240	9.64	3.53066E-001	1.31967E-005	0.00000E+000	3.53020E-001	0.00000E+000	10	...........	1505.49
	242	9.72	3.57061E-001	1.29691E-005	0.00000E+000	3.57019E-001	0.00000E+000	10	...........	1505.49
	244	9.8	3.61078E-001	1.28583E-005	0.00000E+000	3.61019E-001	0.00000E+000	10	...........	1505.49
	246	9.88	3.65096E-001	1.26650E-005	0.00000E+000	3.65019E-001	0.00000E+000	10	...........	1505.49
	248	9.96	3.69074E-001	1.24374E-005	0.00000E+000	3.69018E-001	0.00000E+000	10	...........	1505.49
	250	10.04	3.73079E-001	1.22321E-005	0.00000E+000	3.73018E-001	0.00000E+000	10	...........	1505.49
	252	10.12	3.77076E-001	1.21322E-005	0.00000E+000	3.77018E-001	0.00000E+000	10	...........	1505.03
	254	10.2	3.81074E-001	1.19761E-005	0.00000E+000	3.81017E-001	0.00000E+000	10	...........	1505.03
	256	10.28	3.85081E-001	1.18878E-005	0.00000E+000	3.85017E-001	0.00000E+000	10	...........	1505.03
	258	10.36	3.89080E-001	1.18538E-005	0.00000E+000	3.89017E-001	0.00000E+000	10	...........	1505.03
	260	10.44	3.93078E-001	1.17891E-005	0.00000E+000	3.93017E-001	0.00000E+000	10	...........	1505.03
	262	10.52	3.97100E-001	1.17905E-005	0.00000E+000	3.97016E-001	0.00000E+000	10	...........	1505.03
	264	10.6	4.01078E-001	1.17750E-005	0.00000E+000	4.01016E-001	0.00000E+000	10	...........	1505.03
	266	10.68	4.05101E-001	1.18017E-005	0.00000E+000	4.05016E-001	0.00000E+000	10	...........	1505.03
	268	10.76	4.09090E-001	1.17507E-005	0.00000E+000	4.09015E-001	0.00000E+000	10	...........	1505.03
	270	10.84	4.13107E-001	1.17807E-005	0.00000E+000	4.13015E-001	0.00000E+000	10	...........	1505.03
	272	10.92	4.17094E-001	1.17745E-005	0.00000E+000	4.17015E-001	0.00000E+000	10	...........	1505.03
	274	11	4.21084E-001	1.18704E-005	0.00000E+000	4.21014E-001	0.00000E+000	10	...........	1505.03
	276	11.08	4.25099E-001	1.19697E-005	0.00000E+000	4.25014E-001	0.00000E+000	10	...........	1505.18
	278	11.16	4.29095E-001	1.20324E-005	0.00000E+000	4.29014E-001	0.00000E+000	10	...........	1505.40
	280	11.24	4.33082E-001	1.21262E-005	0.00000E+000	4.33013E-001	0.00000E+000	10	...........	1505.40
	282	11.32	4.37091E-001	1.22684E-005	0.00000E+000	4.37013E-001	0.00000E+000	10	...........	1505.40
	284	11.4	4.41086E-001	1.24137E-005	0.00000E+000	4.41013E-001	0.00000E+000	10	...........	1505.40
	286	11.48	4.45106E-001	1.26279E-005	0.00000E+000	4.45012E-001	0.00000E+000	10	...........	1505.40
	288	11.56	4.49108E-001	1.28345E-005	0.00000E+000	4.49012E-001	0.00000E+000	10	...........	1505.40
	290	11.64	4.53099E-001	1.31237E-005	0.00000E+000	4.53012E-001	0.00000E+000	10	...........	1505.40
	292	11.72	4.57095E-001	1.34196E-005	0.00000E+000	4.57012E-001	0.00000E+000	10	...........	1505.40
	294	11.8	4.61124E-001	1.38042E-005	0.00000E+000	4.61011E-001	0.00000E+000	10	...........	1505.40
	296	11.88	4.65098E-001	1.41657E-005	0.00000E+000	4.65011E-001	0.00000E+000	10	...........	1505.40
	298	11.96	4.69108E-001	1.46493E-005	0.00000E+000	4.69011E-001	0.00000E+000	10	...........	1505.40
	300	12.04	4.73084E-001	1.51922E-005	0.00000E+000	4.73010E-001	0.00000E+000	10	...........	1505.40
	302	12.12	4.77104E-001	1.58279E-005	0.00000E+000	4.77010E-001	0.00000E+000	10	...........	1505.03
	304	12.2	4.81107E-001	1.66624E-005	0.00000E+000	4.81010E-001	0.00000E+000	10	...........	1505.03
	306	12.28	4.85094E-001	1.75284E-005	0.00000E+000	4.85009E-001	0.00000E+000	10	...........	1505.03
	308	12.36	4.89110E-001	1.86368E-005	0.00000E+000	4.89009E-001	0.00000E+000	10	...........	1505.03
	310	12.44	4.93113E-001	1.98519E-005	0.00000E+000	4.93009E-001	0.00000E+000	10	...........	1505.03
	312	12.52	4.97101E-001	2.13297E-005	0.00000E+000	4.97008E-001	0.00000E+000	10	...........	1505.03
	314	12.6	5.01105E-001	2.29345E-005	0.00000E+000	5.01008E-001	0.00000E+000	10	...........	1505.03
	316	12.68	5.05088E-001	2.48889E-005	0.00000E+000	5.05008E-001	0.00000E+000	10	...........	1505.03
	318	12.76	5.09094E-001	2.70243E-005	0.00000E+000	5.09007E-001	0.00000E+000	10	...........	1505.03
	320	12.84	5.13115E-001	2.94644E-005	0.00000E+000	5.13007E-001	0.00000E+000	10	...........	1505.03
	322	12.92	5.17118E-001	3.22546E-005	0.00000E+000	5.17007E-001	0.00000E+000	10	...........	1505.03
	324	13	5.21102E-001	3.52806E-005	0.00000E+000	5.21007E-001	0.00000E+000	10	...........	1505.03
	326	13.08	5.25118E-001	3.85978E-005	0.00000E+000	5.25006E-001	0.00000E+000	10	...........	1505.18
	328	13.16	5.29120E-001	4.21921E-005	0.00000E+000	5.29006E-001	0.00000E+000	10	...........	1505.40
	330	13.24	5.33108E-001	4.58663E-005	0.00000E+000	5.33006E-001	0.00000E+000	10	...........	1505.40
	332	13.32	5.37082E-001	4.95845E-005	0.00000E+000	5.37005E-001	0.00000E+000	10	...........	1505.40
	334	13.4	5.41119E-001	5.35167E-005	0.00000E+000	5.41005E-001	0.00000E+000	10	...........	1505.40
	336	13.48	5.45109E-001	5.72170E-005	0.00000E+000	5.45005E-001	0.00000E+000	10	...........	1505.40
	338	13.56	5.49106E-001	6.06767E-005	0.00000E+000	5.49004E-001	0.00000E+000	10	...........	1505.40
	340	13.64	5.53105E-001	6.40296E-005	0.00000E+000	5.53004E-001	0.00000E+000	10	...........	1505.40
	342	13.72	5.57111E-001	6.70649E-005	0.00000E+000	5.57004E-001	0.00000E+000	10	...........	1505.40
	344	13.8	5.61090E-001	6.96609E-005	0.00000E+000	5.61003E-001	0.00000E+000	10	...........	1505.40
	346	13.88	5.65112E-001	7.17075E-005	0.00000E+000	5.65003E-001	0.00000E+000	10	...........	1505.40
	348	13.96	5.69108E-001	7.32249E-005	0.00000E+000	5.69003E-001	0.00000E+000	10	...........	1505.40
	350	14.04	5.73119E-001	7.41183E-005	0.00000E+000	5.73002E-001	0.00000E+000	10	...........	1505.40
	352	14.12	5.77130E-001	7.44526E-005	0.00000E+000	5.77002E-001	0.00000E+000	10	...........	1505.03
	354	14.2	5.81123E-001	7.45327E-005	0.00000E+000	5.81002E-001	0.00000E+000	10	...........	1505.03
	356	14.28	5.85108E-001	7.42621E-005	0.00000E+000	5.85002E-001	0.00000E+000	10	...........	1505.03
	358	14.36	5.89116E-001	7.37090E-005	0.00000E+000	5.89001E-001	0.00000E+000	10	...........	1505.03
	360	14.44	5.93124E-001	7.30104E-005	0.00000E+000	5.93001E-001	0.00000E+000	10	...........	1505.03
	362	14.52	5.97113E-001	7.22228E-005	0.00000E+000	5.97001E-001	0.00000E+000	10	...........	1505.03
	364	14.6	6.01110E-001	7.12043E-005	0.00000E+000	6.01000E-001	0.00000E+000	10	...........	1505.03
	366	14.68	6.05111E-001	6.98117E-005	0.00000E+000	6.05000E-001	0.00000E+000	10	...........	1505.03
	368	14.76	6.09124E-001	6.81580E-005	0.00000E+000	6.09000E-001	0.00000E+000	10	...........	1505.03
	370	14.84	6.13105E-001	6.59655E-005	0.00000E+000	6.12999E-001	0.00000E+000	10	...........	1505.03
	372	14.92	6.17148E-001	6.32541E-005	0.00000E+000	6.16999E-001	0.00000E+000	10	...........	1505.03
	374	15	6.21138E-001	5.99437E-005	0.00000E+000	6.20999E-001	0.00000E+000	10	...........	1505.03
	376	15.08	6.25130E-001	5.61292E-005	0.00000E+000	6.24998E-001	0.00000E+000	10	...........	1505.19
	378	15.16	6.29135E-001	5.18298E-005	0.00000E+000	6.28998E-001	0.00000E+000	10	...........	1505.40
	380	15.24	6.33121E-001	4.70916E-005	0.00000E+000	6.32998E-001	0.00000E+000	10	...........	1505.40
	382	15.32	6.37114E-001	4.25267E-005	0.00000E+000	6.36997E-001	0.00000E+000	10	...........	1505.40
	384	15.4	6.41123E-001	3.82739E-005	0.00000E+000	6.40997E-001	0.00000E+000	10	...........	1505.40
	386	15.48	6.45120E-001	3.45934E-005	0.00000E+000	6.44997E-001	0.00000E+000	10	...........	1505.40
	388	15.56	6.49116E-001	3.15005E-005	0.00000E+000	6.48997E-001	0.00000E+000	10	...........	1505.40
	390	15.64	6.53135E-001	2.89977E-005	0.00000E+000	6.52996E-001	0.00000E+000	10	...........	1505.40
	392	15.72	6.57114E-001	2.71239E-005	0.00000E+000	6.56996E-001	0.00000E+000	10	...........	1505.40
	394	15.8	6.61114E-001	2.57140E-005	0.00000E+000	6.60996E-001	0.00000E+000	10	...........	1505.40
	396	15.88	6.65116E-001	2.47502E-005	0.00000E+000	6.64995E-001	0.00000E+000	10	...........	1505.40
	398	15.96	6.69157E-001	2.40557E-005	0.00000E+000	6.68995E-001	0.00000E+000	10	...........	1505.40
	400	16.04	6.73150E-001	2.35800E-005	0.00000E+000	6.72995E-001	0.00000E+000	10	...........	1505.40
	402	16.12	6.77143E-001	2.32270E-005	0.00000E+000	6.76994E-001	0.00000E+000	10	...........	1505.03
	404	16.2	6.81142E-001	2.30455E-005	0.00000E+000	6.80994E-001	0.00000E+000	10	...........	1505.03
	406	16.28	6.85123E-001	2.29385E-005	0.00000E+000	6.84994E-001	0.00000E+000	10	...........	1505.03
	408	16.36	6.89118E-001	2.28485E-005	0.00000E+000	6.88993E-001	0.00000E+000	10	...........	1505.03
	410	16.44	6.93144E-001	2.28175E-005	0.00000E+000	6.92993E-001	0.00000E+000	10	...........	1505.03
	412	16.52	6.97127E-001	2.28071E-005	0.00000E+000	6.96993E-001	0.00000E+000	10	...........	1505.03
	414	16.6	7.01131E-001	2.27561E-005	0.00000E+000	7.00992E-001	0.00000E+000	10	...........	1505.03
	416	16.68	7.05128E-001	2.27744E-005	0.00000E+000	7.04992E-001	0.00000E+000	10	...........	1505.03
	418	16.76	7.09123E-001	2.28396E-005	0.00000E+000	7.08992E-001	0.00000E+000	10	...........	1505.03
	420	16.84	7.13118E-001	2.28529E-005	0.00000E+000	7.12992E-001	0.00000E+000	10	...........	1505.03
	422	16.92	7.17113E-001	2.29185E-005	0.00000E+000	7.16991E-001	0.00000E+000	10	...........	1505.03
	424	17	7.21137E-001	2.29999E-005	0.00000E+000	7.20991E-001	0.00000E+000	10	...........	1505.03
	426	17.08	7.25132E-001	2.30796E-005	0.00000E+000	7.24991E-001	0.00000E+000	10	...........	1505.03
	428	17.16	7.29124E-001	2.31582E-005	0.00000E+000	7.28990E-001	0.00000E+000	10	...........	1505.03
	430	17.24	7.33131E-001	2.31661E-005	0.00000E+000	7.32990E-001	0.00000E+000	10	...........	1505.03
	432	17.32	7.37118E-001	2.32151E-005	0.00000E+000	7.36990E-001	0.00000E+000	10	...........	1505.03
	434	17.4	7.41109E-001	2.32695E-005	0.00000E+000	7.40989E-001	0.00000E+000	10	...........	1505.03
	436	17.48	7.45128E-001	2.33695E-005	0.00000E+000	7.44989E-001	0.00000E+000	10	...........	1505.03
	438	17.56	7.49144E-001	2.34728E-005	0.00000E+000	7.48989E-001	0.00000E+000	10	...........	1505.03
	440	17.64	7.53130E-001	2.35651E-005	0.00000E+000	7.52988E-001	0.00000E+000	10	...........	1505.03
	442	17.72	7.57134E-001	2.36220E-005	0.00000E+000	7.56988E-001	0.00000E+000	10	...........	1505.03
	444	17.8	7.61117E-001	2.37039E-005	0.00000E+000	7.60988E-001	0.00000E+000	10	...........	1505.03
	446	17.88	7.65117E-001	2.37827E-005	0.00000E+000	7.64987E-001	0.00000E+000	10	...........	1505.03
	448	17.96	7.69143E-001	2.38107E-005	0.00000E+000	7.68987E-001	0.00000E+000	10	...........	1505.03
	450	18.04	7.73135E-001	2.38742E-005	0.00000E+000	7.72987E-001	0.00000E+000	10	...........	1505.03
	452	18.12	7.69156E-001	9.06423E-006	0.00000E+000	7.68987E-001	0.00000E+000	10	...........	1505.03
	454	18.2	7.65129E-001	4.95373E-006	0.00000E+000	7.64987E-001	0.00000E+000	10	...........	1505.03
	456	18.28	7.61126E-001	2.34255E-006	0.00000E+000	7.60988E-001	0.00000E+000	10	...........	1505.03
	458	18.36	7.57139E-001	5.14165E-007	0.00000E+000	7.56988E-001	0.00000E+000	10	...........	1505.03
	460	18.44	7.53125E-001	-8.51600E-007	0.00000E+000	7.52988E-001	0.00000E+000	10	...........	1505.03
	462	18.52	7.49131E-001	-1.94610E-006	0.00000E+000	7.48989E-001	0.00000E+000	10	...........	1505.03
	464	18.6	7.45144E-001	-2.79227E-006	0.00000E+000	7.44989E-001	0.00000E+000	10	...........	1505.03
	466	18.68	7.41122E-001	-3.50781E-006	0.00000E+000	7.40989E-001	0.00000E+000	10	...........	1505.03
	468	18.76	7.37114E-001	-4.11342E-006	0.00000E+000	7.36990E-001	0.00000E+000	10	...........	1505.03
	470	18.84	7.33138E-001	-4.65456E-006	0.00000E+000	7.32990E-001	0.00000E+000	10	...........	1505.03
	472	18.92	7.29133E-001	-5.12858E-006	0.00000E+000	7.28990E-001	0.00000E+000	10	...........	1505.03
	474	19	7.25132E-001	-5.63553E-006	0.00000E+000	7.24991E-001	0.00000E+000	10	...........	1505.03
	476	19.08	7.21136E-001	-6.05507E-006	0.00000E+000	7.20991E-001	0.00000E+000	10	...........	1505.07
	478	19.16	7.17113E-001	-6.33967E-006	0.00000E+000	7.16991E-001	0.00000E+000	10	...........	1505.12
	480	19.24	7.13115E-001	-6.56924E-006	0.00000E+000	7.12992E-001	0.00000E+000	10	...........	1505.12
	482	19.32	7.09122E-001	-6.89220E-006	0.00000E+000	7.08992E-001	0.00000E+000	10	...........	1505.12
	484	19.4	7.05139E-001	-7.13553E-006	0.00000E+000	7.04992E-001	0.00000E+000	10	...........	1505.12
	486	19.48	7.01131E-001	-7.38539E-006	0.00000E+000	7.00992E-001	0.00000E+000	10	...........	1505.12
	488	19.56	6.97115E-001	-7.60427E-006	0.00000E+000	6.96993E-001	0.00000E+000	10	...........	1505.12
	490	19.64	6.93136E-001	-7.81286E-006	0.00000E+000	6.92993E-001	0.00000E+000	10	...........	1505.12
	492	19.72	6.89106E-001	-8.03256E-006	0.00000E+000	6.88993E-001	0.00000E+000	10	...........	1505.12
	494	19.8	6.85119E-001	-8.23309E-006	0.00000E+000	6.84994E-001	0.00000E+000	10	...........	1505.12
	496	19.88	6.81159E-001	-8.44071E-006	0.00000E+000	6.80994E-001	0.00000E+000	10	...........	1505.12
	498	19.96	6.77137E-001	-8.54535E-006	0.00000E+000	6.76994E-001	0.00000E+000	10	...........	1505.12
	500	20.04	6.73141E-001	-8.72865E-006	0.00000E+000	6.72995E-001	0.00000E+000	10	...........	1505.12
	502	20.12	6.69142E-001	-8.94613E-006	0.00000E+000	6.68995E-001	0.00000E+000	10	...........	1505.03
	504	20.2	6.65105E-001	-9.15680E-006	0.00000E+000	6.64995E-001	0.00000E+000	10	...........	1505.03
	506	20.28	6.61125E-001	-9.25630E-006	0.00000E+000	6.60996E-001	0.00000E+000	10	...........	1505.03
	508	20.36	6.57125E-001	-9.32370E-006	0.00000E+000	6.56996E-001	0.00000E+000	10	...........	1505.03
	510	20.44	6.53151E-001	-9.31717E-006	0.00000E+000	6.52996E-001	0.00000E+000	10	...........	1505.03
	512	20.52	6.49123E-001	-9.41264E-006	0.00000E+000	6.48997E-001	0.00000E+000	10	...........	1505.03
	514	20.6	6.45142E-001	-9.34830E-006	0.00000E+000	6.44997E-001	0.00000E+000	10	...........	1505.03
	516	20.68	6.41138E-001	-9.43668E-006	0.00000E+000	6.40997E-001	0.00000E+000	10	...........	1505.03
	518	20.76	6.37131E-001	-9.42487E-006	0.00000E+000	6.36997E-001	0.00000E+000	10	...........	1505.03
	520	20.84	6.33108E-001	-9.45336E-006	0.00000E+000	6.32998E-001	0.00000E+000	10	...........	1505.03
	522	20.92	6.29119E-001	-9.50714E-006	0.00000E+000	6.28998E-001	0.00000E+000	10	...........	1505.03
	524	21	6.25123E-001	-9.48754E-006	0.00000E+000	6.24998E-001	0.00000E+000	10	...........	1505.03
	526	21.08	6.21146E-001	-9.48463E-006	0.00000E+000	6.20999E-001	0.00000E+000	10	...........	1505.12
	528	21.16	6.17143E-001	-9.37915E-006	0.00000E+000	6.16999E-001	0.00000E+000	10	...........	1505.21
	530	21.24	6.13111E-001	-9.31467E-006	0.00000E+000	6.12999E-001	0.00000E+000	10	...........	1505.21
	532	21.32	6.09125E-001	-9.25686E-006	0.00000E+000	6.09000E-001	0.00000E+000	10	...........	1505.21
	534	21.4	6.05114E-001	-9.21864E-006	0.00000E+000	6.05000E-001	0.00000E+000	10	...........	1505.21
	536	21.48	6.01108E-001	-9.15917E-006	0.00000E+000	6.01000E-001	0.00000E+000	10	...........	1505.21
	538	21.56	5.97116E-001	-9.07273E-006	0.00000E+000	5.97001E-001	0.00000E+000	10	...........	1505.21
	540	21.64	5.93115E-001	-9.00088E-006	0.00000E+000	5.93001E-001	0.00000E+000	10	...........	1505.21
	542	21.72	5.89125E-001	-8.88651E-006	0.00000E+000	5.89001E-001	0.00000E+000	10	...........	1505.21
	544	21.8	5.85120E-001	-8.71280E-006	0.00000E+000	5.85002E-001	0.00000E+000	10	...........	1505.21
	546	21.88	5.81123E-001	-8.66430E-006	0.00000E+000	5.81002E-001	0.00000E+000	10	...........	1505.21
	548	21.96	5.77120E-001	-8.49907E-006	0.00000E+000	5.77002E-001	0.00000E+000	10	...........	1505.21
	550	22.04	5.73104E-001	-8.34010E-006	0.00000E+000	5.73002E-001	0.00000E+000	10	...........	1505.21
	552	22.12	5.69114E-001	-8.18417E-006	0.00000E+000	5.69003E-001	0.00000E+000	10	...........	1505.03
	554	22.2	5.65110E-001	-8.07926E-006	0.00000E+000	5.65003E-001	0.00000E+000	10	...........	1505.03
	556	22.28	5.61097E-001	-7.90944E-006	0.00000E+000	5.61003E-001	0.00000E+000	10	...........	1505.03
	558	22.36	5.57116E-001	-7.78312E-006	0.00000E+000	5.57004E-001	0.00000E+000	10	...........	1505.03
	560	22.44	5.53114E-001	-7.65721E-006	0.00000E+000	5.53004E-001	0.00000E+000	10	...........	1505.03
	562	22.52	5.49106E-001	-7.55966E-006	0.00000E+000	5.49004E-001	0.00000E+000	10	...........	1505.03
	564	22.6	5.45124E-001	-7.44932E-006	0.00000E+000	5.45005E-001	0.00000E+000	10	...........	1505.03
	566	22.68	5.41113E-001	-7.34398E-006	0.00000E+000	5.41005E-001	0.00000E+000	10	...........	1505.03
	568	22.76	5.37098E-001	-7.19501E-006	0.00000E+000	5.37005E-001	0.00000E+000	10	...........	1505.03
	570	22.84	5.33103E-001	-6.98684E-006	0.00000E+000	5.33006E-001	0.00000E+000	10	...........	1505.03
	572	22.92	5.29115E-001	-6.86538E-006	0.00000E+000	5.29006E-001	0.00000E+000	10	...........	1505.03
	574	23	5.25130E-001	-6.81369E-006	0.00000E+000	5.25006E-001	0.00000E+000	10	...........	1505.03
	576	23.08	5.21123E-001	-6.71446E-006	0.00000E+000	5.21007E-001	0.00000E+000	10	...........	1505.03
	578	23.16	5.17129E-001	-6.56869E-006	0.00000E+000	5.17007E-001	0.00000E+000	10	...........	1505.03
	580	23.24	5.13120E-001	-6.42263E-006	0.00000E+000	5.13007E-001	0.00000E+000	10	...........	1505.03
	582	23.32	5.09110E-001	-6.36330E-006	0.00000E+000	5.09007E-001	0.00000E+000	10	...........	1505.03
	584	23.4	5.05098E-001	-6.22238E-006	0.00000E+000	5.05008E-001	0.00000E+000	10	...........	1505.03
	586	23.48	5.01114E-001	-6.05507E-006	0.00000E+000	5.01008E-001	0.00000E+000	10	...........	1505.03
	588	23.56	4.97098E-001	-5.94348E-006	0.00000E+000	4.97008E-001	0.00000E+000	10	...........	1505.03
	590	23.64	4.93116E-001	-5.71099E-006	0.00000E+000	4.93009E-001	0.00000E+000	10	...........	1505.03
	592	23.72	4.89101E-001	-5.61524E-006	0.00000E+000	4.89009E-001	0.00000E+000	10	...........	1505.03
	594	23.8	4.85087E-001	-5.57202E-006	0.00000E+000	4.85009E-001	0.00000E+000	10	...........	1505.03
	596	23.88	4.81086E-001	-5.53783E-006	0.00000E+000	4.81010E-001	0.00000E+000	10	...........	1505.03
	598	23.96	4.77107E-001	-5.36023E-006	0.00000E+000	4.77010E-001	0.00000E+000	10	...........	1505.03
	600	24.04	4.73080E-001	-5.27282E-006	0.00000E+000	4.73010E-001	0.00000E+000	10	...........	1505.03
	602	24.12	4.69101E-001	-5.14150E-006	0.00000E+000	4.69011E-001	0.00000E+000	10	...........	1505.03
	604	24.2	4.65097E-001	-5.10259E-006	0.00000E+000	4.65011E-001	0.00000E+000	10	...........	1505.03
	606	24.28	4.61110E-001	-5.02143E-006	0.00000E+000	4.61011E-001	0.00000E+000	10	...........	1505.03
	608	24.36	4.57086E-001	-4.90178E-006	0.00000E+000	4.57012E-001	0.00000E+000	10	...........	1505.03
	610	24.44	4.53096E-001	-4.85495E-006	0.00000E+000	4.53012E-001	0.00000E+000	10	...........	1505.03
	612	24.52	4.49109E-001	-4.74642E-006	0.00000E+000	4.49012E-001	0.00000E+000	10	...........	1505.03
	614	24.6	4.45112E-001	-4.69041E-006	0.00000E+000	4.45012E-001	0.00000E+000	10	...........	1505.03
	616	24.68	4.41097E-001	-4.63066E-006	0.00000E+000	4.41013E-001	0.00000E+000	10	...........	1505.03
	618	24.76	4.37104E-001	-4.66651E-006	0.00000E+000	4.37013E-001	0.00000E+000	10	...........	1505.03
	620	24.84	4.33082E-001	-4.72863E-006	0.00000E+000	4.33013E-001	0.00000E+000	10	...........	1505.03
	622	24.92	4.29097E-001	-4.58647E-006	0.00000E+000	4.29014E-001	0.00000E+000	10	...........	1505.03
	624	25	4.25109E-001	-4.54575E-006	0.00000E+000	4.25014E-001	0.00000E+000	10	...........	1505.03
	626	25.08	4.21098E-001	-4.50170E-006	0.00000E+000	4.21014E-001	0.00000E+000	10	...........	1505.03
	628	25.16	4.17098E-001	-4.47627E-006	0.00000E+000	4.17015E-001	0.00000E+000	10	...........	1505.03
	630	25.24	4.13102E-001	-4.41999E-006	0.00000E+000	4.13015E-001	0.00000E+000	10	...........	1505.03
	632	25.32	4.09083E-001	-4.41860E-006	0.00000E+000	4.09015E-001	0.00000E+000	10	...........	1505.03
	634	25.4	4.05079E-001	-4.44361E-006	0.00000E+000	4.05016E-001	0.00000E+000	10	...........	1505.03
	636	25.48	4.01085E-001	-4.47154E-006	0.00000E+000	4.01016E-001	0.00000E+000	10	...........	1505.03
	638	25.56	3.97110E-001	-4.42388E-006	0.00000E+000	3.97016E-001	0.00000E+000	10	...........	1505.03
	640	25.64	3.93076E-001	-4.54422E-006	0.00000E+000	3.93017E-001	0.00000E+000	10	...........	1505.03
	642	25.72	3.89086E-001	-4.50003E-006	0.00000E+000	3.89017E-001	0.00000E+000	10	...........	1505.03
	644	25.8	3.85084E-001	-4.53936E-006	0.00000E+000	3.85017E-001	0.00000E+000	10	...........	1505.03
	646	25.88	3.81075E-001	-4.59091E-006	0.00000E+000	3.81017E-001	0.00000E+000	10	...........	1505.03
	648	25.96	3.77070E-001	-4.59550E-006	0.00000E+000	3.77018E-001	0.00000E+000	10	...........	1505.03
	650	26.04	3.73077E-001	-4.61371E-006	0.00000E+000	3.73018E-001	0.00000E+000	10	...........	1505.03
	652	26.12	3.69069E-001	-4.60606E-006	0.00000E+000	3.69018E-001	0.00000E+000	10	...........	1505.49
	654	26.2	3.65078E-001	-4.68569E-006	0.00000E+000	3.65019E-001	0.00000E+000	10	...........	1505.49
	656	26.28	3.61074E-001	-4.69875E-006	0.00000E+000	3.61019E-001	0.00000E+000	10	...........	1505.49
	658	26.36	3.57057E-001	-4.72113E-006	0.00000E+000	3.57019E-001	0.00000E+000	10	...........	1505.49
	660	26.44	3.53060E-001	-4.54784E-006	0.00000E+000	3.53020E-001	0.00000E+000	10	...........	1505.49
	662	26.52	3.49077E-001	-4.56409E-006	0.00000E+000	3.49020E-001	0.00000E+000	10	...........	1505.49
	664	26.6	3.45060E-001	-4.56604E-006	0.00000E+000	3.45020E-001	0.00000E+000	10	...........	1505.49
	666	26.68	3.41075E-001	-4.46598E-006	0.00000E+000	3.41021E-001	0.00000E+000	10	...........	1505.49
	668	26.76	3.37072E-001	-4.41721E-006	0.00000E+000	3.37021E-001	0.00000E+000	10	...........	1505.49
	670	26.84	3.33084E-001	-4.33383E-006	0.00000E+000	3.33021E-001	0.00000E+000	10	...........	1505.49
	672	26.92	3.29053E-001	-4.28032E-006	0.00000E+000	3.29022E-001	0.00000E+000	10	...........	1505.49
	674	27	3.25061E-001	-4.25559E-006	0.00000E+000	3.25022E-001	0.00000E+000	10	...........	1505.49
	676	27.08	3.21091E-001	-4.23655E-006	0.00000E+000	3.21022E-001	0.00000E+000	10	...........	1505.24
	678	27.16	3.17077E-001	-4.27171E-006	0.00000E+000	3.17022E-001	0.00000E+000	10	...........	1505.03
	680	27.24	3.13069E-001	-4.25670E-006	0.00000E+000	3.13023E-001	0.00000E+000	10	...........	1505.03
	682	27.32	3.09074E-001	-4.13232E-006	0.00000E+000	3.09023E-001	0.00000E+000	10	...........	1505.03
	684	27.4	3.05060E-001	-4.09453E-006	0.00000E+000	3.05023E-001	0.00000E+000	10	...........	1505.03
	686	27.48	3.01063E-001	-4.06854E-006	0.00000E+000	3.01024E-001	0.00000E+000	10	...........	1505.03
	688	27.56	2.97046E-001	-4.08230E-006	0.00000E+000	2.97024E-001	0.00000E+000	10	...........	1505.03
	690	27.64	2.93000E-001	-4.10231E-006	0.00000E+000	2.92974E-001	0.00000E+000	10	...........	1505.03
	692	27.72	2.89013E-001	-4.01267E-006	0.00000E+000	2.88975E-001	0.00000E+000	10	...........	1505.03
	694	27.8	2.85034E-001	-4.01434E-006	0.00000E+000	2.84975E-001	0.00000E+000	10	...........	1505.03
	696	27.88	2.81005E-001	-3.97682E-006	0.00000E+000	2.80975E-001	0.00000E+000	10	...........	1505.03
	698	27.96	2.77001E-001	-4.01379E-006	0.00000E+000	2.76976E-001	0.00000E+000	10	...........	1505.03
	700	28.04	2.73009E-001	-3.94500E-006	0.00000E+000	2.72976E-001	0.00000E+000	10	...........	1505.03
	702	28.12	2.69035E-001	-3.81367E-006	0.00000E+000	2.68976E-001	0.00000E+000	10	...........	1505.49
	704	28.2	2.65014E-001	-3.85119E-006	0.00000E+000	2.64977E-001	0.00000E+000	10	...........	1505.49
	706	28.28	2.61012E-001	-3.90984E-006	0.00000E+000	2.60977E-001	0.00000E+000	10	...........	1505.49
	708	28.36	2.57026E-001	-3.91804E-006	0.00000E+000	2.56977E-001	0.00000E+000	10	...........	1505.49
	710	28.44	2.52999E-001	-3.92457E-006	0.00000E+000	2.52977E-001	0.00000E+000	10	...........	1505.49
	712	28.52	2.49007E-001	-3.84216E-006	0.00000E+000	2.48978E-001	0.00000E+000	10	...........	1505.49
	714	28.6	2.45030E-001	-3.80950E-006	0.00000E+000	2.44978E-001	0.00000E+000	10	...........	1505.49
	716	28.68	2.41010E-001	-3.83118E-006	0.00000E+000	2.40978E-001	0.00000E+000	10	...........	1505.49
	718	28.76	2.37024E-001	-3.85328E-006	0.00000E+000	2.36979E-001	0.00000E+000	10	...........	1505.49
	720	28.84	2.33012E-001	-3.91776E-006	0.00000E+000	2.32979E-001	0.00000E+000	10	...........	1505.49
	722	28.92	2.29002E-001	-3.88802E-006	0.00000E+000	2.28979E-001	0.00000E+000	10	...........	1505.49
	724	29	2.24998E-001	-3.91359E-006	0.00000E+000	2.24980E-001	0.00000E+000	10	...........	1505.49
	726	29.08	2.21012E-001	-3.90706E-006	0.00000E+000	2.20980E-001	0.00000E+000	10	...........	1505.23
	728	29.16	2.16990E-001	-4.01782E-006	0.00000E+000	2.16980E-001	0.00000E+000	10	...........	1505.03
	730	29.24	2.13011E-001	-3.92304E-006	0.00000E+000	2.12981E-001	0.00000E+000	10	...........	1505.03
	732	29.32	2.09018E-001	-3.86134E-006	0.00000E+000	2.08981E-001	0.00000E+000	10	...........	1505.03
	734	29.4	2.05022E-001	-3.93180E-006	0.00000E+000	2.04981E-001	0.00000E+000	10	...........	1505.03
	736	29.48	2.01009E-001	-3.92040E-006	0.00000E+000	2.00982E-001	0.00000E+000	10	...........	1505.03
	738	29.56	1.96988E-001	-3.96501E-006	0.00000E+000	1.96982E-001	0.00000E+000	10	...........	1505.03
	740	29.64	1.93024E-001	-3.94611E-006	0.00000E+000	1.92982E-001	0.00000E+000	10	...........	1505.03
	742	29.72	1.89013E-001	-3.91526E-006	0.00000E+000	1.88982E-001	0.00000E+000	10	...........	1505.03
	744	29.8	1.85010E-001	-3.91665E-006	0.00000E+000	1.84983E-001	0.00000E+000	10	...........	1505.03
	746	29.88	1.81013E-001	-3.86690E-006	0.00000E+000	1.80983E-001	0.00000E+000	10	...........	1505.03
	748	29.96	1.76996E-001	-3.89678E-006	0.00000E+000	1.76983E-001	0.00000E+000	10	...........	1505.03
	750	30.04	1.73025E-001	-3.83660E-006	0.00000E+000	1.72984E-001	0.00000E+000	10	...........	1505.03
	752	30.12	1.69015E-001	-3.89539E-006	0.00000E+000	1.68984E-001	0.00000E+000	10	...........	1505.03
	754	30.2	1.65010E-001	-3.88983E-006	0.00000E+000	1.64984E-001	0.00000E+000	10	...........	1505.03
	756	30.28	1.61022E-001	-3.96834E-006	0.00000E+000	1.60985E-001	0.00000E+000	10	...........	1505.03
	758	30.36	1.57018E-001	-4.09856E-006	0.00000E+000	1.56985E-001	0.00000E+000	10	...........	1505.03
	760	30.44	1.53014E-001	-4.12454E-006	0.00000E+000	1.52985E-001	0.00000E+000	10	...........	1505.03
	762	30.52	1.49002E-001	-4.22515E-006	0.00000E+000	1.48986E-001	0.00000E+000	10	...........	1505.03
[...]
	2521	100.88	6.31128E-001	-4.71084E-006	0.00000E+000	6.30998E-001	0.00000E+000	10	...........	1505.12
	2524	101	6.25112E-001	-4.67832E-006	0.00000E+000	6.24998E-001	0.00000E+000	10	...........	1505.12
	2527	101.12	6.19136E-001	-4.56729E-006	0.00000E+000	6.18999E-001	0.00000E+000	10	...........	1505.30
	2530	101.24	6.13118E-001	-4.56048E-006	0.00000E+000	6.12999E-001	0.00000E+000	10	...........	1505.30
	2533	101.36	6.07135E-001	-4.53964E-006	0.00000E+000	6.07000E-001	0.00000E+000	10	...........	1505.30
	2536	101.48	6.01124E-001	-4.47821E-006	0.00000E+000	6.01000E-001	0.00000E+000	10	...........	1505.30
	2539	101.6	5.95132E-001	-4.39497E-006	0.00000E+000	5.95001E-001	0.00000E+000	10	...........	1505.30
	2542	101.72	5.89131E-001	-4.29908E-006	0.00000E+000	5.89001E-001	0.00000E+000	10	...........	1505.30
	2545	101.84	5.83111E-001	-4.23905E-006	0.00000E+000	5.83002E-001	0.00000E+000	10	...........	1505.30
	2548	101.96	5.77124E-001	-4.30756E-006	0.00000E+000	5.77002E-001	0.00000E+000	10	...........	1505.30
	2551	102.08	5.71114E-001	-4.16401E-006	0.00000E+000	5.71003E-001	0.00000E+000	10	...........	1505.21
	2554	102.2	5.65121E-001	-4.08230E-006	0.00000E+000	5.65003E-001	0.00000E+000	10	...........	1505.21
	2557	102.32	5.59105E-001	-3.90998E-006	0.00000E+000	5.59004E-001	0.00000E+000	10	...........	1505.21
	2560	102.44	5.53114E-001	-3.86384E-006	0.00000E+000	5.53004E-001	0.00000E+000	10	...........	1505.21
	2563	102.56	5.47115E-001	-3.70597E-006	0.00000E+000	5.47004E-001	0.00000E+000	10	...........	1505.21
	2566	102.68	5.41120E-001	-3.71987E-006	0.00000E+000	5.41005E-001	0.00000E+000	10	...........	1505.21
	2569	102.8	5.35098E-001	-3.65442E-006	0.00000E+000	5.35005E-001	0.00000E+000	10	...........	1505.21
	2572	102.92	5.29115E-001	-3.57187E-006	0.00000E+000	5.29006E-001	0.00000E+000	10	...........	1505.21
	2575	103.04	5.23106E-001	-3.56367E-006	0.00000E+000	5.23006E-001	0.00000E+000	10	...........	1505.18
	2578	103.16	5.17123E-001	-3.48530E-006	0.00000E+000	5.17007E-001	0.00000E+000	10	...........	1505.03
	2581	103.28	5.11095E-001	-3.53769E-006	0.00000E+000	5.11007E-001	0.00000E+000	10	...........	1505.03
	2584	103.4	5.05091E-001	-3.48043E-006	0.00000E+000	5.05008E-001	0.00000E+000	10	...........	1505.03
	2587	103.52	4.99092E-001	-3.44958E-006	0.00000E+000	4.99008E-001	0.00000E+000	10	...........	1505.03
	2590	103.64	4.93108E-001	-3.42485E-006	0.00000E+000	4.93009E-001	0.00000E+000	10	...........	1505.03
	2593	103.76	4.87113E-001	-3.40956E-006	0.00000E+000	4.87009E-001	0.00000E+000	10	...........	1505.03
	2596	103.88	4.81087E-001	-3.35703E-006	0.00000E+000	4.81010E-001	0.00000E+000	10	...........	1505.03
	2599	104	4.75104E-001	-3.37384E-006	0.00000E+000	4.75010E-001	0.00000E+000	10	...........	1505.03
	2602	104.12	4.69098E-001	-3.40984E-006	0.00000E+000	4.69011E-001	0.00000E+000	10	...........	1505.12
	2605	104.24	4.63097E-001	-3.37815E-006	0.00000E+000	4.63011E-001	0.00000E+000	10	...........	1505.12
	2608	104.36	4.57074E-001	-3.45792E-006	0.00000E+000	4.57012E-001	0.00000E+000	10	...........	1505.12
	2611	104.48	4.51097E-001	-3.44722E-006	0.00000E+000	4.51012E-001	0.00000E+000	10	...........	1505.12
	2614	104.6	4.45103E-001	-3.40845E-006	0.00000E+000	4.45012E-001	0.00000E+000	10	...........	1505.12
	2617	104.72	4.39110E-001	-3.48127E-006	0.00000E+000	4.39013E-001	0.00000E+000	10	...........	1505.12
	2620	104.84	4.33083E-001	-3.49919E-006	0.00000E+000	4.33013E-001	0.00000E+000	10	...........	1505.12
	2623	104.96	4.27099E-001	-3.50392E-006	0.00000E+000	4.27014E-001	0.00000E+000	10	...........	1505.12
	2626	105.08	4.21077E-001	-3.43999E-006	0.00000E+000	4.21014E-001	0.00000E+000	10	...........	1505.30
	2629	105.2	4.15095E-001	-3.48488E-006	0.00000E+000	4.15015E-001	0.00000E+000	10	...........	1505.30
	2632	105.32	4.09084E-001	-3.57674E-006	0.00000E+000	4.09015E-001	0.00000E+000	10	...........	1505.30
	2635	105.44	4.03087E-001	-3.55464E-006	0.00000E+000	4.03016E-001	0.00000E+000	10	...........	1505.30
	2638	105.56	3.97081E-001	-3.64427E-006	0.00000E+000	3.97016E-001	0.00000E+000	10	...........	1505.30
	2641	105.68	3.91079E-001	-3.58605E-006	0.00000E+000	3.91017E-001	0.00000E+000	10	...........	1505.30
	2644	105.8	3.85073E-001	-3.61690E-006	0.00000E+000	3.85017E-001	0.00000E+000	10	...........	1505.30
	2647	105.92	3.79073E-001	-3.59855E-006	0.00000E+000	3.79018E-001	0.00000E+000	10	...........	1505.30
	2650	106.04	3.73070E-001	-3.62579E-006	0.00000E+000	3.73018E-001	0.00000E+000	10	...........	1505.26
	2653	106.16	3.67077E-001	-3.60828E-006	0.00000E+000	3.67019E-001	0.00000E+000	10	...........	1505.12
	2656	106.28	3.61073E-001	-3.57924E-006	0.00000E+000	3.61019E-001	0.00000E+000	10	...........	1505.12
	2659	106.4	3.55058E-001	-3.52782E-006	0.00000E+000	3.55020E-001	0.00000E+000	10	...........	1505.12
	2662	106.52	3.49076E-001	-3.54839E-006	0.00000E+000	3.49020E-001	0.00000E+000	10	...........	1505.12
	2665	106.64	3.43075E-001	-3.53435E-006	0.00000E+000	3.43020E-001	0.00000E+000	10	...........	1505.12
	2668	106.76	3.37079E-001	-3.52004E-006	0.00000E+000	3.37021E-001	0.00000E+000	10	...........	1505.12
	2671	106.88	3.31068E-001	-3.56993E-006	0.00000E+000	3.31021E-001	0.00000E+000	10	...........	1505.12
	2674	107	3.25059E-001	-3.52601E-006	0.00000E+000	3.25022E-001	0.00000E+000	10	...........	1505.12
	2677	107.12	3.19071E-001	-3.54769E-006	0.00000E+000	3.19022E-001	0.00000E+000	10	...........	1505.40
	2680	107.24	3.13076E-001	-3.64247E-006	0.00000E+000	3.13023E-001	0.00000E+000	10	...........	1505.40
	2683	107.36	3.07089E-001	-3.64108E-006	0.00000E+000	3.07023E-001	0.00000E+000	10	...........	1505.40
	2686	107.48	3.01060E-001	-3.61662E-006	0.00000E+000	3.01024E-001	0.00000E+000	10	...........	1505.40
	2689	107.6	2.95016E-001	-3.71598E-006	0.00000E+000	2.94974E-001	0.00000E+000	10	...........	1505.40
	2692	107.72	2.89014E-001	-3.58535E-006	0.00000E+000	2.88975E-001	0.00000E+000	10	...........	1505.40
	2695	107.84	2.83028E-001	-3.54880E-006	0.00000E+000	2.82975E-001	0.00000E+000	10	...........	1505.40
	2698	107.96	2.77004E-001	-3.60495E-006	0.00000E+000	2.76976E-001	0.00000E+000	10	...........	1505.40
	2701	108.08	2.71028E-001	-3.64580E-006	0.00000E+000	2.70976E-001	0.00000E+000	10	...........	1505.12
	2704	108.2	2.65013E-001	-3.66289E-006	0.00000E+000	2.64977E-001	0.00000E+000	10	...........	1505.12
	2707	108.32	2.59024E-001	-3.64803E-006	0.00000E+000	2.58977E-001	0.00000E+000	10	...........	1505.12
	2710	108.44	2.52998E-001	-3.75044E-006	0.00000E+000	2.52977E-001	0.00000E+000	10	...........	1505.12
	2713	108.56	2.47008E-001	-3.72251E-006	0.00000E+000	2.46978E-001	0.00000E+000	10	...........	1505.12
	2716	108.68	2.40996E-001	-3.60522E-006	0.00000E+000	2.40978E-001	0.00000E+000	10	...........	1505.12
	2719	108.8	2.35003E-001	-3.62343E-006	0.00000E+000	2.34979E-001	0.00000E+000	10	...........	1505.12
	2722	108.92	2.28978E-001	-3.70069E-006	0.00000E+000	2.28979E-001	0.00000E+000	10	...........	1505.12
	2725	109.04	2.23015E-001	-3.65748E-006	0.00000E+000	2.22980E-001	0.00000E+000	10	...........	1505.19
	2728	109.16	2.16997E-001	-3.64761E-006	0.00000E+000	2.16980E-001	0.00000E+000	10	...........	1505.40
	2731	109.28	2.11018E-001	-3.69333E-006	0.00000E+000	2.10981E-001	0.00000E+000	10	...........	1505.40
	2734	109.4	2.05021E-001	-3.67234E-006	0.00000E+000	2.04981E-001	0.00000E+000	10	...........	1505.40
	2737	109.52	1.98997E-001	-3.72682E-006	0.00000E+000	1.98982E-001	0.00000E+000	10	...........	1505.40
	2740	109.64	1.93022E-001	-3.71501E-006	0.00000E+000	1.92982E-001	0.00000E+000	10	...........	1505.40
	2743	109.76	1.87012E-001	-3.69180E-006	0.00000E+000	1.86983E-001	0.00000E+000	10	...........	1505.40
	2746	109.88	1.81021E-001	-3.62120E-006	0.00000E+000	1.80983E-001	0.00000E+000	10	...........	1505.40
	2749	110	1.75006E-001	-3.58063E-006	0.00000E+000	1.74984E-001	0.00000E+000	10	...........	1505.40
	2752	110.12	1.69008E-001	-3.66331E-006	0.00000E+000	1.68984E-001	0.00000E+000	10	...........	1505.12
	2755	110.24	1.63003E-001	-3.68985E-006	0.00000E+000	1.62985E-001	0.00000E+000	10	...........	1505.12
	2758	110.36	1.57015E-001	-3.70347E-006	0.00000E+000	1.56985E-001	0.00000E+000	10	...........	1505.12
	2761	110.48	1.50990E-001	-3.87565E-006	0.00000E+000	1.50985E-001	0.00000E+000	10	...........	1505.12
	2764	110.6	1.45001E-001	-4.00503E-006	0.00000E+000	1.44986E-001	0.00000E+000	10	...........	1505.12
	2767	110.72	1.39001E-001	-4.18610E-006	0.00000E+000	1.38986E-001	0.00000E+000	10	...........	1505.12
	2770	110.84	1.32998E-001	-4.44139E-006	0.00000E+000	1.32987E-001	0.00000E+000	10	...........	1505.12
	2773	110.96	1.26997E-001	-4.66387E-006	0.00000E+000	1.26987E-001	0.00000E+000	10	...........	1505.12
	2776	111.08	1.20994E-001	-5.12079E-006	0.00000E+000	1.20988E-001	0.00000E+000	10	...........	1505.40
	2779	111.2	1.15012E-001	-5.53742E-006	0.00000E+000	1.14988E-001	0.00000E+000	10	...........	1505.40
	2782	111.32	1.09008E-001	-6.26532E-006	0.00000E+000	1.08989E-001	0.00000E+000	10	...........	1505.40
	2785	111.44	1.03014E-001	-7.12789E-006	0.00000E+000	1.02989E-001	0.00000E+000	10	...........	1505.40
	2788	111.56	9.69995E-002	-8.08745E-006	0.00000E+000	9.69897E-002	0.00000E+000	10	...........	1505.40
	2791	111.68	9.09979E-002	-9.23935E-006	0.00000E+000	9.09902E-002	0.00000E+000	10	...........	1505.40
	2794	111.8	8.49952E-002	-1.05912E-005	0.00000E+000	8.49906E-002	0.00000E+000	10	...........	1505.40
	2797	111.92	7.89969E-002	-1.18946E-005	0.00000E+000	7.89911E-002	0.00000E+000	10	...........	1505.40
	2800	112.04	7.29861E-002	-1.31272E-005	0.00000E+000	7.29916E-002	0.00000E+000	10	...........	1505.32
	2803	112.16	6.70149E-002	-1.39402E-005	0.00000E+000	6.69920E-002	0.00000E+000	10	...........	1505.12
	2806	112.28	6.10153E-002	-1.44527E-005	0.00000E+000	6.09925E-002	0.00000E+000	10	...........	1505.12
	2809	112.4	5.49999E-002	-1.49499E-005	0.00000E+000	5.49930E-002	0.00000E+000	10	...........	1505.12
	2812	112.52	4.89800E-002	-1.53326E-005	0.00000E+000	4.89934E-002	0.00000E+000	10	...........	1505.12
	2815	112.64	4.29793E-002	-1.60814E-005	0.00000E+000	4.29939E-002	0.00000E+000	10	...........	1505.12
	2818	112.76	3.69816E-002	-1.74199E-005	0.00000E+000	3.69944E-002	0.00000E+000	10	...........	1505.12
	2821	112.88	3.09919E-002	-1.89378E-005	0.00000E+000	3.09948E-002	0.00000E+000	10	...........	1505.12
	2824	113	2.50020E-002	-2.13324E-005	0.00000E+000	2.49953E-002	0.00000E+000	10	...........	1505.12
	2827	113.12	1.90024E-002	-2.44709E-005	0.00000E+000	1.89958E-002	0.00000E+000	10	...........	1505.40
	2830	113.24	1.30105E-002	-2.76080E-005	0.00000E+000	1.29963E-002	0.00000E+000	10	...........	1505.40
	2833	113.36	7.00292E-003	-3.10297E-005	0.00000E+000	6.99672E-003	0.00000E+000	10	...........	1505.40
	2836	113.48	1.00945E-003	-3.44254E-005	0.00000E+000	9.97186E-004	0.00000E+000	10	...........	1505.40
	2839	113.6	-4.99878E-003	-3.60299E-005	0.00000E+000	-5.00235E-003	0.00000E+000	10	...........	1505.40
	2842	113.72	-1.09888E-002	-3.75121E-005	0.00000E+000	-1.10019E-002	0.00000E+000	10	...........	1505.40
	2845	113.84	-1.69982E-002	-3.72411E-005	0.00000E+000	-1.70014E-002	0.00000E+000	10	...........	1505.40
	2848	113.96	-2.30036E-002	-3.58299E-005	0.00000E+000	-2.30009E-002	0.00000E+000	10	...........	1505.40
	2851	114.08	-2.90174E-002	-3.42160E-005	0.00000E+000	-2.90005E-002	0.00000E+000	10	...........	1505.03
	2854	114.2	-3.50043E-002	-3.21398E-005	0.00000E+000	-3.50000E-002	0.00000E+000	10	...........	1505.03
	2857	114.32	-4.10051E-002	-3.15050E-005	0.00000E+000	-4.09995E-002	0.00000E+000	10	...........	1505.03
	2860	114.44	-4.69971E-002	-3.11417E-005	0.00000E+000	-4.69991E-002	0.00000E+000	10	...........	1505.03
	2863	114.56	-5.30351E-002	-3.12050E-005	0.00000E+000	-5.29986E-002	0.00000E+000	10	...........	1505.03
	2866	114.68	-5.90290E-002	-3.23252E-005	0.00000E+000	-5.89981E-002	0.00000E+000	10	...........	1505.03
	2869	114.8	-6.50250E-002	-3.36144E-005	0.00000E+000	-6.49976E-002	0.00000E+000	10	...........	1505.03
	2872	114.92	-7.10080E-002	-3.54101E-005	0.00000E+000	-7.09972E-002	0.00000E+000	10	...........	1505.03
	2875	115.04	-7.70013E-002	-3.84824E-005	0.00000E+000	-7.69967E-002	0.00000E+000	10	...........	1505.14
	2878	115.16	-8.30142E-002	-4.18903E-005	0.00000E+000	-8.29962E-002	0.00000E+000	10	...........	1505.40
	2881	115.28	-8.90100E-002	-4.64327E-005	0.00000E+000	-8.89958E-002	0.00000E+000	10	...........	1505.40
	2884	115.4	-9.49997E-002	-5.11521E-005	0.00000E+000	-9.49953E-002	0.00000E+000	10	...........	1505.40
	2887	115.52	-1.01001E-001	-5.30811E-005	0.00000E+000	-1.00995E-001	0.00000E+000	10	...........	1505.40
	2890	115.64	-1.07029E-001	-5.26527E-005	0.00000E+000	-1.06994E-001	0.00000E+000	10	...........	1505.40
	2893	115.76	-1.13008E-001	-5.04038E-005	0.00000E+000	-1.12994E-001	0.00000E+000	10	...........	1505.40
	2896	115.88	-1.19026E-001	-4.78490E-005	0.00000E+000	-1.18993E-001	0.00000E+000	10	...........	1505.40
	2899	116	-1.25002E-001	-4.58332E-005	0.00000E+000	-1.24993E-001	0.00000E+000	10	...........	1505.40
	2902	116.12	-1.31018E-001	-4.42245E-005	0.00000E+000	-1.30993E-001	0.00000E+000	10	...........	1505.12
	2905	116.24	-1.37008E-001	-4.35395E-005	0.00000E+000	-1.36992E-001	0.00000E+000	10	...........	1505.12
	2908	116.36	-1.43003E-001	-4.31988E-005	0.00000E+000	-1.42992E-001	0.00000E+000	10	...........	1505.12
	2911	116.48	-1.48991E-001	-4.35465E-005	0.00000E+000	-1.48991E-001	0.00000E+000	10	...........	1505.12
	2914	116.6	-1.55025E-001	-4.46685E-005	0.00000E+000	-1.54991E-001	0.00000E+000	10	...........	1505.12
	2917	116.72	-1.61015E-001	-4.59709E-005	0.00000E+000	-1.60990E-001	0.00000E+000	10	...........	1505.12
	2920	116.84	-1.67017E-001	-4.94309E-005	0.00000E+000	-1.66990E-001	0.00000E+000	10	...........	1505.12
	2923	116.96	-1.73005E-001	-5.50783E-005	0.00000E+000	-1.72989E-001	0.00000E+000	10	...........	1505.12
	2926	117.08	-1.78999E-001	-6.00385E-005	0.00000E+000	-1.78989E-001	0.00000E+000	10	...........	1505.49
	2929	117.2	-1.85005E-001	-6.80625E-005	0.00000E+000	-1.84988E-001	0.00000E+000	10	...........	1505.49
	2932	117.32	-1.90995E-001	-8.04656E-005	0.00000E+000	-1.90988E-001	0.00000E+000	10	...........	1505.49
	2935	117.44	-1.96997E-001	-9.86620E-005	0.00000E+000	-1.96987E-001	0.00000E+000	10	...........	1505.49
	2938	117.56	-2.02991E-001	-1.25206E-004	0.00000E+000	-2.02987E-001	0.00000E+000	10	...........	1505.49
	2941	117.68	-2.09017E-001	-1.59250E-004	0.00000E+000	-2.08986E-001	0.00000E+000	10	...........	1505.49
	2944	117.8	-2.15009E-001	-2.03248E-004	0.00000E+000	-2.14986E-001	0.00000E+000	10	...........	1505.49
	2947	117.92	-2.21004E-001	-2.57002E-004	0.00000E+000	-2.20985E-001	0.00000E+000	10	...........	1505.49
	2950	118.04	-2.27002E-001	-3.22169E-004	0.00000E+000	-2.26985E-001	0.00000E+000	10	...........	1505.34
CURVE4	TABLE
	Pt	T	Vf	Im	Vu	Sig	Ach	IERange	Over	Temp
	#	s	V vs. Ref.	A	V	V	V	#	bits	deg C
	2951	118.08	-2.25024E-001	-2.47441E-004	0.00000E+000	-2.24985E-001	0.00000E+000	10	...........	1505.03
	2952	118.12	-2.23013E-001	-1.90081E-004	0.00000E+000	-2.22985E-001	0.00000E+000	10	...........	1505.03
	2953	118.16	-2.21024E-001	-1.41257E-004	0.00000E+000	-2.20985E-001	0.00000E+000	10	...........	1505.03
	2954	118.2	-2.19015E-001	-9.85163E-005	0.00000E+000	-2.18986E-001	0.00000E+000	10	...........	1505.03
	2955	118.24	-2.16998E-001	-6.09972E-005	0.00000E+000	-2.16986E-001	0.00000E+000	10	...........	1505.03
	2956	118.28	-2.15005E-001	-2.77398E-005	0.00000E+000	-2.14986E-001	0.00000E+000	10	...........	1505.03
	2957	118.32	-2.13011E-001	1.01028E-006	0.00000E+000	-2.12986E-001	0.00000E+000	10	...........	1505.03
	2958	118.36	-2.11013E-001	2.64715E-005	0.00000E+000	-2.10986E-001	0.00000E+000	10	...........	1505.03
	2959	118.4	-2.09007E-001	4.77211E-005	0.00000E+000	-2.08986E-001	0.00000E+000	10	...........	1505.03
	2960	118.44	-2.07020E-001	6.60399E-005	0.00000E+000	-2.06987E-001	0.00000E+000	10	...........	1505.03
	2961	118.48	-2.05005E-001	8.04538E-005	0.00000E+000	-2.04987E-001	0.00000E+000	10	...........	1505.03
	2962	118.52	-2.02996E-001	9.20569E-005	0.00000E+000	-2.02987E-001	0.00000E+000	10	...........	1505.03
	2963	118.56	-2.01016E-001	1.00384E-004	0.00000E+000	-2.00987E-001	0.00000E+000	10	...........	1505.03
	2964	118.6	-1.99007E-001	1.06390E-004	0.00000E+000	-1.98987E-001	0.00000E+000	10	...........	1505.03
	2965	118.64	-1.97010E-001	1.09749E-004	0.00000E+000	-1.96987E-001	0.00000E+000	10	...........	1505.03
	2966	118.68	-1.95010E-001	1.11623E-004	0.00000E+000	-1.94988E-001	0.00000E+000	10	...........	1505.03
	2967	118.72	-1.93013E-001	1.11561E-004	0.00000E+000	-1.92988E-001	0.00000E+000	10	...........	1505.03
	2968	118.76	-1.90989E-001	1.10788E-004	0.00000E+000	-1.90988E-001	0.00000E+000	10	...........	1505.03
	2969	118.8	-1.88997E-001	1.08525E-004	0.00000E+000	-1.88988E-001	0.00000E+000	10	...........	1505.03
	2970	118.84	-1.87004E-001	1.05976E-004	0.00000E+000	-1.86988E-001	0.00000E+000	10	...........	1505.03
	2971	118.88	-1.84999E-001	1.02868E-004	0.00000E+000	-1.84988E-001	0.00000E+000	10	...........	1505.03
	2972	118.92	-1.83013E-001	9.93631E-005	0.00000E+000	-1.82988E-001	0.00000E+000	10	...........	1505.03
	2973	118.96	-1.81016E-001	9.58104E-005	0.00000E+000	-1.80989E-001	0.00000E+000	10	...........	1505.03
	2974	119	-1.79003E-001	9.20518E-005	0.00000E+000	-1.78989E-001	0.00000E+000	10	...........	1505.03
	2975	119.04	-1.76999E-001	8.88344E-005	0.00000E+000	-1.76989E-001	0.00000E+000	10	...........	1505.15
	2976	119.08	-1.74995E-001	8.53263E-005	0.00000E+000	-1.74989E-001	0.00000E+000	10	...........	1505.40
	2977	119.12	-1.72996E-001	8.24103E-005	0.00000E+000	-1.72989E-001	0.00000E+000	10	...........	1505.40
	2978	119.16	-1.71006E-001	7.93761E-005	0.00000E+000	-1.70989E-001	0.00000E+000	10	...........	1505.40
	2979	119.2	-1.69000E-001	7.68959E-005	0.00000E+000	-1.68990E-001	0.00000E+000	10	...........	1505.40
	2980	119.24	-1.67021E-001	7.42069E-005	0.00000E+000	-1.66990E-001	0.00000E+000	10	...........	1505.40
	2981	119.28	-1.65000E-001	7.20906E-005	0.00000E+000	-1.64990E-001	0.00000E+000	10	...........	1505.40
	2982	119.32	-1.62999E-001	6.99951E-005	0.00000E+000	-1.62990E-001	0.00000E+000	10	...........	1505.40
	2983	119.36	-1.61020E-001	6.82490E-005	0.00000E+000	-1.60990E-001	0.00000E+000	10	...........	1505.40
	2984	119.4	-1.59006E-001	6.68008E-005	0.00000E+000	-1.58990E-001	0.00000E+000	10	...........	1505.40
	2985	119.44	-1.57012E-001	6.54395E-005	0.00000E+000	-1.56990E-001	0.00000E+000	10	...........	1505.40
	2986	119.48	-1.55016E-001	6.42922E-005	0.00000E+000	-1.54991E-001	0.00000E+000	10	...........	1505.40
	2987	119.52	-1.52985E-001	6.26566E-005	0.00000E+000	-1.52991E-001	0.00000E+000	10	...........	1505.40
	2988	119.56	-1.51001E-001	6.13442E-005	0.00000E+000	-1.50991E-001	0.00000E+000	10	...........	1505.40
	2989	119.6	-1.48980E-001	5.97063E-005	0.00000E+000	-1.48991E-001	0.00000E+000	10	...........	1505.40
	2990	119.64	-1.46996E-001	5.87390E-005	0.00000E+000	-1.46991E-001	0.00000E+000	10	...........	1505.40
	2991	119.68	-1.45000E-001	5.73728E-005	0.00000E+000	-1.44991E-001	0.00000E+000	10	...........	1505.40
	2992	119.72	-1.43006E-001	5.65650E-005	0.00000E+000	-1.42992E-001	0.00000E+000	10	...........	1505.40
	2993	119.76	-1.40991E-001	5.57993E-005	0.00000E+000	-1.40992E-001	0.00000E+000	10	...........	1505.40
	2994	119.8	-1.39003E-001	5.48522E-005	0.00000E+000	-1.38992E-001	0.00000E+000	10	...........	1505.40
	2995	119.84	-1.37006E-001	5.45165E-005	0.00000E+000	-1.36992E-001	0.00000E+000	10	...........	1505.40
	2996	119.88	-1.35031E-001	5.35569E-005	0.00000E+000	-1.34992E-001	0.00000E+000	10	...........	1505.40
	2997	119.92	-1.33028E-001	5.34878E-005	0.00000E+000	-1.32992E-001	0.00000E+000	10	...........	1505.40
	2998	119.96	-1.31031E-001	5.29292E-005	0.00000E+000	-1.30993E-001	0.00000E+000	10	...........	1505.40
	2999	120	-1.29030E-001	5.27812E-005	0.00000E+000	-1.28993E-001	0.00000E+000	10	...........	1505.40
	3000	120.04	-1.27020E-001	5.25174E-005	0.00000E+000	-1.26993E-001	0.00000E+000	10	...........	1505.27