File: data/Jesus_data/Test_Break_in.DTA
EXPLAIN
TAG	CV
TITLE	LABEL	Cyclic Voltammetry	Test Identifier
DATE	LABEL	7/17/2023	Date
TIME	LABEL	19:32:03	Time
NOTES	NOTES	1	Notes...

PSTAT	PSTAT	IFC1010-20234	Potentiostat
VINIT	POTEN	-2.27000E-001	F	Initial E (V)
VLIMIT1	POTEN	1.27400E+000	F	Scan Limit 1 (V)
VLIMIT2	POTEN	-2.27000E-001	F	Scan Limit 2 (V)
VFINAL	POTEN	-1.27000E-001	F	Final E (V)
SCANRATE	QUANT	4.99999E+001	Scan Rate (mV/s)
STEPSIZE	QUANT	2.00000E+000	Step Size (mV)
CYCLES	IQUANT	30	Cycles (#)
IMODE	SELECTOR	1	I/E Range Mode
IRANGE	QUANT	2.00000E+000	Max Current (mA)
AREA	QUANT	1.00000E+000	Sample Area (cm^2)
EQDELAY	QUANT	5.00000E+000	Equil. Time (s)
IRCOMP	SELECTOR	2	IRComp
PFCOR	QUANT	3.36300E+001	PF Corr. (ohm)
SAMPLINGMODE	SELECTOR	2	Sampling Mode
EOC	QUANT	0	Open Circuit (V)
ELECTRODETYPE	SELECTOR	0	Electrode Type
STRIPPING	TOGGLE	F	Used for Stripping
POLARITY	TOGGLE	F	Signal Polarity
SEQUENCER	TOGGLE	TRUE	Run as Sequence
PSTATMODEL	IQUANT	64	Pstat Model
PSTATSECTION	LABEL	IFC1010-20234	Pstat Section
PSTATSERIALNO	LABEL	20234	Pstat Serial Number
CTRLMODE	IQUANT	1	Control Mode
ELECTROMETER	IQUANT	0	RE=0 or CS=1
IESTAB	IQUANT	2	I/E Stability
CASPEED	IQUANT	4	Control Amp Speed
CONVENTION	IQUANT	1	Current Convention
ICHRANGE	IQUANT	2	Ich Range
ICHRANGEMODE	TOGGLE	F	Ich Auto Range
ICHOFFSETENABLE	TOGGLE	F	Ich Offset Enable
ICHOFFSET	QUANT	0	Ich Offset (V)
ICHFILTER	IQUANT	3	Ich Filter
VCHRANGE	IQUANT	2	Vch Range
VCHRANGEMODE	TOGGLE	F	Vch Auto Range
VCHOFFSETENABLE	TOGGLE	F	Vch Offset Enable
VCHOFFSET	QUANT	0	Vch Offset (V)
VCHFILTER	IQUANT	1	Vch Filter
IERANGELOWERLIMIT	IQUANT	4	I/E Range Lower Limit
IERANGEMODE	TOGGLE	F	I/E AutoRange
IERANGE	IQUANT	10	I/E Range
ACHSELECT	IQUANT	0	Ach Select
ACHRANGE	IQUANT	2	Ach Range
ACHOFFSETENABLE	TOGGLE	F	Ach Offset Enable
ACHOFFSET	QUANT	0	Ach Offset (V)
ACHFILTER	IQUANT	1	Ach Filter
SENSECABLEID	IQUANT	14	Sense Cable ID
PWRCABLEID	IQUANT	14	Power Cable ID
DCCALDATE	LABEL	7/15/2022	DC Calibration Date
ACCALDATE	LABEL	7/8/2020	AC Calibration Date
FRAMEWORKVERSION	LABEL	7.8.2	Framework Version
INSTRUMENTVERSION	LABEL	4.40	Instrument Version
CURVE1	TABLE
	Pt	T	Vf	Im	Vu	Sig	Ach	IERange	Over	Temp
	#	s	V vs. Ref.	A	V	V	V	#	bits	deg C
	0	0.04	-2.26972E-001	-1.14515E-004	0.00000E+000	-2.26987E-001	0.00000E+000	10	...........	1505.77
	3	0.16	-2.20979E-001	2.15730E-005	0.00000E+000	-2.20988E-001	0.00000E+000	10	...........	1505.77
	6	0.28	-2.14989E-001	1.19254E-004	0.00000E+000	-2.14988E-001	0.00000E+000	10	...........	1505.77
	9	0.4	-2.08997E-001	1.87687E-004	0.00000E+000	-2.08989E-001	0.00000E+000	10	...........	1505.77
	12	0.52	-2.02963E-001	2.26521E-004	0.00000E+000	-2.02989E-001	0.00000E+000	10	...........	1505.77
	15	0.64	-1.96983E-001	2.36413E-004	0.00000E+000	-1.96990E-001	0.00000E+000	10	...........	1505.77
	18	0.76	-1.90987E-001	2.27720E-004	0.00000E+000	-1.90990E-001	0.00000E+000	10	...........	1505.77
	21	0.88	-1.84984E-001	2.13058E-004	0.00000E+000	-1.84991E-001	0.00000E+000	10	...........	1505.77
	24	1	-1.78972E-001	1.96054E-004	0.00000E+000	-1.78991E-001	0.00000E+000	10	...........	1505.77
	27	1.12	-1.72979E-001	1.78844E-004	0.00000E+000	-1.72992E-001	0.00000E+000	10	...........	1505.77
	30	1.24	-1.67013E-001	1.61629E-004	0.00000E+000	-1.66992E-001	0.00000E+000	10	...........	1505.77
	33	1.36	-1.61000E-001	1.47442E-004	0.00000E+000	-1.60993E-001	0.00000E+000	10	...........	1505.77
	36	1.48	-1.55000E-001	1.36787E-004	0.00000E+000	-1.54993E-001	0.00000E+000	10	...........	1505.77
	39	1.6	-1.48982E-001	1.27964E-004	0.00000E+000	-1.48994E-001	0.00000E+000	10	...........	1505.77
	42	1.72	-1.42995E-001	1.19786E-004	0.00000E+000	-1.42994E-001	0.00000E+000	10	...........	1505.77
	45	1.84	-1.36997E-001	1.13076E-004	0.00000E+000	-1.36995E-001	0.00000E+000	10	...........	1505.49
	48	1.96	-1.30993E-001	1.07422E-004	0.00000E+000	-1.30995E-001	0.00000E+000	10	...........	1505.49
	51	2.08	-1.24976E-001	1.02521E-004	0.00000E+000	-1.24995E-001	0.00000E+000	10	...........	1505.49
	54	2.2	-1.18997E-001	9.85214E-005	0.00000E+000	-1.18996E-001	0.00000E+000	10	...........	1505.49
	57	2.32	-1.12989E-001	9.51817E-005	0.00000E+000	-1.12996E-001	0.00000E+000	10	...........	1505.49
	60	2.44	-1.06992E-001	9.20892E-005	0.00000E+000	-1.06997E-001	0.00000E+000	10	...........	1505.49
	63	2.56	-1.00963E-001	8.90156E-005	0.00000E+000	-1.00997E-001	0.00000E+000	10	...........	1505.49
	66	2.68	-9.49661E-002	8.65397E-005	0.00000E+000	-9.49978E-002	0.00000E+000	10	...........	1505.49
	69	2.8	-8.89818E-002	8.43048E-005	0.00000E+000	-8.89983E-002	0.00000E+000	10	...........	1505.19
	72	2.92	-8.29939E-002	8.26262E-005	0.00000E+000	-8.29988E-002	0.00000E+000	10	...........	1505.12
	75	3.04	-7.69799E-002	8.02427E-005	0.00000E+000	-7.69992E-002	0.00000E+000	10	...........	1505.12
	78	3.16	-7.10117E-002	7.77251E-005	0.00000E+000	-7.09997E-002	0.00000E+000	10	...........	1505.12
	81	3.28	-6.50167E-002	7.55790E-005	0.00000E+000	-6.50002E-002	0.00000E+000	10	...........	1505.12
	84	3.4	-5.90189E-002	7.39960E-005	0.00000E+000	-5.90006E-002	0.00000E+000	10	...........	1505.12
	87	3.52	-5.30019E-002	7.23152E-005	0.00000E+000	-5.30011E-002	0.00000E+000	10	...........	1505.12
	90	3.64	-4.69765E-002	7.03788E-005	0.00000E+000	-4.70016E-002	0.00000E+000	10	...........	1505.12
	93	3.76	-4.09946E-002	6.84987E-005	0.00000E+000	-4.10020E-002	0.00000E+000	10	...........	1505.12
	96	3.88	-3.49899E-002	6.74213E-005	0.00000E+000	-3.50025E-002	0.00000E+000	10	...........	1505.12
	99	4	-2.89827E-002	6.60622E-005	0.00000E+000	-2.90030E-002	0.00000E+000	10	...........	1505.12
	102	4.12	-2.29883E-002	6.44070E-005	0.00000E+000	-2.30035E-002	0.00000E+000	10	...........	1505.12
	105	4.24	-1.69737E-002	6.30272E-005	0.00000E+000	-1.70039E-002	0.00000E+000	10	...........	1505.12
	108	4.36	-1.09724E-002	6.18791E-005	0.00000E+000	-1.10044E-002	0.00000E+000	10	...........	1505.12
	111	4.48	-4.97721E-003	6.08535E-005	0.00000E+000	-5.00488E-003	0.00000E+000	10	...........	1505.12
	114	4.6	1.01885E-003	5.93164E-005	0.00000E+000	9.94682E-004	0.00000E+000	10	...........	1505.12
	117	4.72	7.01907E-003	5.78376E-005	0.00000E+000	6.99419E-003	0.00000E+000	10	...........	1505.12
	120	4.84	1.30219E-002	5.65013E-005	0.00000E+000	1.29938E-002	0.00000E+000	10	...........	1505.12
	123	4.96	1.90143E-002	5.51646E-005	0.00000E+000	1.89933E-002	0.00000E+000	10	...........	1505.12
	126	5.08	2.50267E-002	5.33769E-005	0.00000E+000	2.49928E-002	0.00000E+000	10	...........	1505.12
	129	5.2	3.10165E-002	5.15825E-005	0.00000E+000	3.09923E-002	0.00000E+000	10	...........	1505.12
	132	5.32	3.70044E-002	4.99752E-005	0.00000E+000	3.69919E-002	0.00000E+000	10	...........	1505.12
	135	5.44	4.30077E-002	4.79357E-005	0.00000E+000	4.29914E-002	0.00000E+000	10	...........	1505.12
	138	5.56	4.90119E-002	4.58857E-005	0.00000E+000	4.89909E-002	0.00000E+000	10	...........	1505.12
	141	5.68	5.50273E-002	4.42485E-005	0.00000E+000	5.49904E-002	0.00000E+000	10	...........	1505.12
	144	5.8	6.10236E-002	4.24453E-005	0.00000E+000	6.09900E-002	0.00000E+000	10	...........	1505.12
	147	5.92	6.70219E-002	4.06247E-005	0.00000E+000	6.69895E-002	0.00000E+000	10	...........	1505.12
	150	6.04	7.30054E-002	3.86299E-005	0.00000E+000	7.29890E-002	0.00000E+000	10	...........	1505.12
	153	6.16	7.90109E-002	3.66741E-005	0.00000E+000	7.89886E-002	0.00000E+000	10	...........	1505.12
	156	6.28	8.50210E-002	3.49195E-005	0.00000E+000	8.49881E-002	0.00000E+000	10	...........	1505.12
	159	6.4	9.10154E-002	3.32774E-005	0.00000E+000	9.09877E-002	0.00000E+000	10	...........	1505.12
	162	6.52	9.70130E-002	3.15633E-005	0.00000E+000	9.69872E-002	0.00000E+000	10	...........	1505.12
	165	6.64	1.03037E-001	3.00472E-005	0.00000E+000	1.02987E-001	0.00000E+000	10	...........	1505.12
	168	6.76	1.09041E-001	2.85515E-005	0.00000E+000	1.08986E-001	0.00000E+000	10	...........	1505.12
	171	6.88	1.15017E-001	2.70307E-005	0.00000E+000	1.14986E-001	0.00000E+000	10	...........	1505.21
	174	7	1.21005E-001	2.56341E-005	0.00000E+000	1.20985E-001	0.00000E+000	10	...........	1505.21
	177	7.12	1.27015E-001	2.44388E-005	0.00000E+000	1.26985E-001	0.00000E+000	10	...........	1505.21
	180	7.24	1.33012E-001	2.32087E-005	0.00000E+000	1.32984E-001	0.00000E+000	10	...........	1505.21
	183	7.36	1.39007E-001	2.22485E-005	0.00000E+000	1.38984E-001	0.00000E+000	10	...........	1505.21
	186	7.48	1.45015E-001	2.14039E-005	0.00000E+000	1.44983E-001	0.00000E+000	10	...........	1505.21
	189	7.6	1.51019E-001	2.05712E-005	0.00000E+000	1.50983E-001	0.00000E+000	10	...........	1505.21
	192	7.72	1.57041E-001	1.96475E-005	0.00000E+000	1.56982E-001	0.00000E+000	10	...........	1505.21
	195	7.84	1.63024E-001	1.89349E-005	0.00000E+000	1.62982E-001	0.00000E+000	10	...........	1505.03
	198	7.96	1.69019E-001	1.83940E-005	0.00000E+000	1.68982E-001	0.00000E+000	10	...........	1505.03
	201	8.08	1.75022E-001	1.77938E-005	0.00000E+000	1.74981E-001	0.00000E+000	10	...........	1505.03
	204	8.2	1.81019E-001	1.71928E-005	0.00000E+000	1.80981E-001	0.00000E+000	10	...........	1505.03
	207	8.32	1.87010E-001	1.66875E-005	0.00000E+000	1.86980E-001	0.00000E+000	10	...........	1505.03
	210	8.44	1.93027E-001	1.62482E-005	0.00000E+000	1.92980E-001	0.00000E+000	10	...........	1505.03
	213	8.56	1.99002E-001	1.57915E-005	0.00000E+000	1.98979E-001	0.00000E+000	10	...........	1505.03
	216	8.68	2.05034E-001	1.54189E-005	0.00000E+000	2.04979E-001	0.00000E+000	10	...........	1505.03
	219	8.8	2.11037E-001	1.51372E-005	0.00000E+000	2.10978E-001	0.00000E+000	10	...........	1505.03
	222	8.92	2.17007E-001	1.48466E-005	0.00000E+000	2.16978E-001	0.00000E+000	10	...........	1505.03
	225	9.04	2.23007E-001	1.44845E-005	0.00000E+000	2.22977E-001	0.00000E+000	10	...........	1505.03
	228	9.16	2.29019E-001	1.42588E-005	0.00000E+000	2.28977E-001	0.00000E+000	10	...........	1505.03
	231	9.28	2.35030E-001	1.39900E-005	0.00000E+000	2.34976E-001	0.00000E+000	10	...........	1505.03
	234	9.4	2.41025E-001	1.37056E-005	0.00000E+000	2.40976E-001	0.00000E+000	10	...........	1505.03
	237	9.52	2.47015E-001	1.34193E-005	0.00000E+000	2.46975E-001	0.00000E+000	10	...........	1505.03
	240	9.64	2.53011E-001	1.32172E-005	0.00000E+000	2.52975E-001	0.00000E+000	10	...........	1505.03
	243	9.76	2.59034E-001	1.29663E-005	0.00000E+000	2.58974E-001	0.00000E+000	10	...........	1505.03
	246	9.88	2.65063E-001	1.27345E-005	0.00000E+000	2.65024E-001	0.00000E+000	10	...........	1505.12
	249	10	2.71073E-001	1.26125E-005	0.00000E+000	2.71024E-001	0.00000E+000	10	...........	1505.12
	252	10.12	2.77072E-001	1.24407E-005	0.00000E+000	2.77023E-001	0.00000E+000	10	...........	1505.12
	255	10.24	2.83101E-001	1.22527E-005	0.00000E+000	2.83023E-001	0.00000E+000	10	...........	1505.12
	258	10.36	2.89074E-001	1.20712E-005	0.00000E+000	2.89022E-001	0.00000E+000	10	...........	1505.12
	261	10.48	2.95083E-001	1.18815E-005	0.00000E+000	2.95022E-001	0.00000E+000	10	...........	1505.12
	264	10.6	3.01082E-001	1.17592E-005	0.00000E+000	3.01021E-001	0.00000E+000	10	...........	1505.12
	267	10.72	3.07113E-001	1.15348E-005	0.00000E+000	3.07021E-001	0.00000E+000	10	...........	1505.12
	270	10.84	3.13088E-001	1.13597E-005	0.00000E+000	3.13020E-001	0.00000E+000	10	...........	1505.03
	273	10.96	3.19070E-001	1.12381E-005	0.00000E+000	3.19020E-001	0.00000E+000	10	...........	1505.03
	276	11.08	3.25078E-001	1.11466E-005	0.00000E+000	3.25019E-001	0.00000E+000	10	...........	1505.03
	279	11.2	3.31080E-001	1.10200E-005	0.00000E+000	3.31019E-001	0.00000E+000	10	...........	1505.03
	282	11.32	3.37096E-001	1.08872E-005	0.00000E+000	3.37018E-001	0.00000E+000	10	...........	1505.03
	285	11.44	3.43088E-001	1.06796E-005	0.00000E+000	3.43018E-001	0.00000E+000	10	...........	1505.03
	288	11.56	3.49087E-001	1.05785E-005	0.00000E+000	3.49017E-001	0.00000E+000	10	...........	1505.03
	291	11.68	3.55081E-001	1.05168E-005	0.00000E+000	3.55017E-001	0.00000E+000	10	...........	1505.03
	294	11.8	3.61092E-001	1.03962E-005	0.00000E+000	3.61017E-001	0.00000E+000	10	...........	1505.11
	297	11.92	3.67093E-001	1.02855E-005	0.00000E+000	3.67016E-001	0.00000E+000	10	...........	1505.12
	300	12.04	3.73088E-001	1.02370E-005	0.00000E+000	3.73016E-001	0.00000E+000	10	...........	1505.12
	303	12.16	3.79077E-001	1.00720E-005	0.00000E+000	3.79015E-001	0.00000E+000	10	...........	1505.12
	306	12.28	3.85105E-001	1.00075E-005	0.00000E+000	3.85015E-001	0.00000E+000	10	...........	1505.12
	309	12.4	3.91084E-001	9.89664E-006	0.00000E+000	3.91014E-001	0.00000E+000	10	...........	1505.12
	312	12.52	3.97104E-001	9.85217E-006	0.00000E+000	3.97014E-001	0.00000E+000	10	...........	1505.12
	315	12.64	4.03084E-001	9.75434E-006	0.00000E+000	4.03013E-001	0.00000E+000	10	...........	1505.12
	318	12.76	4.09092E-001	9.68527E-006	0.00000E+000	4.09013E-001	0.00000E+000	10	...........	1505.12
	321	12.88	4.15110E-001	9.61467E-006	0.00000E+000	4.15012E-001	0.00000E+000	10	...........	1505.12
	324	13	4.21095E-001	9.54213E-006	0.00000E+000	4.21012E-001	0.00000E+000	10	...........	1505.12
	327	13.12	4.27100E-001	9.55283E-006	0.00000E+000	4.27011E-001	0.00000E+000	10	...........	1505.12
	330	13.24	4.33099E-001	9.56993E-006	0.00000E+000	4.33011E-001	0.00000E+000	10	...........	1505.12
	333	13.36	4.39114E-001	9.52393E-006	0.00000E+000	4.39010E-001	0.00000E+000	10	...........	1505.12
	336	13.48	4.45099E-001	9.53796E-006	0.00000E+000	4.45010E-001	0.00000E+000	10	...........	1505.12
	339	13.6	4.51096E-001	9.62204E-006	0.00000E+000	4.51010E-001	0.00000E+000	10	...........	1505.12
	342	13.72	4.57083E-001	9.59550E-006	0.00000E+000	4.57009E-001	0.00000E+000	10	...........	1505.12
	345	13.84	4.63113E-001	9.63747E-006	0.00000E+000	4.63009E-001	0.00000E+000	10	...........	1505.12
	348	13.96	4.69117E-001	9.65220E-006	0.00000E+000	4.69008E-001	0.00000E+000	10	...........	1505.12
	351	14.08	4.75100E-001	9.65581E-006	0.00000E+000	4.75008E-001	0.00000E+000	10	...........	1505.12
	354	14.2	4.81099E-001	9.66526E-006	0.00000E+000	4.81007E-001	0.00000E+000	10	...........	1505.12
	357	14.32	4.87113E-001	9.74364E-006	0.00000E+000	4.87007E-001	0.00000E+000	10	...........	1505.12
	360	14.44	4.93113E-001	9.83118E-006	0.00000E+000	4.93006E-001	0.00000E+000	10	...........	1505.12
	363	14.56	4.99096E-001	9.90442E-006	0.00000E+000	4.99006E-001	0.00000E+000	10	...........	1505.12
	366	14.68	5.05099E-001	9.95445E-006	0.00000E+000	5.05005E-001	0.00000E+000	10	...........	1505.12
	369	14.8	5.11105E-001	1.00132E-005	0.00000E+000	5.11005E-001	0.00000E+000	10	...........	1505.29
	372	14.92	5.17134E-001	1.01352E-005	0.00000E+000	5.17004E-001	0.00000E+000	10	...........	1505.30
	375	15.04	5.23130E-001	1.01833E-005	0.00000E+000	5.23004E-001	0.00000E+000	10	...........	1505.30
	378	15.16	5.29105E-001	1.02295E-005	0.00000E+000	5.29003E-001	0.00000E+000	10	...........	1505.30
	381	15.28	5.35124E-001	1.03505E-005	0.00000E+000	5.35003E-001	0.00000E+000	10	...........	1505.30
	384	15.4	5.41122E-001	1.04532E-005	0.00000E+000	5.41002E-001	0.00000E+000	10	...........	1505.30
	387	15.52	5.47107E-001	1.04369E-005	0.00000E+000	5.47002E-001	0.00000E+000	10	...........	1505.30
	390	15.64	5.53131E-001	1.06512E-005	0.00000E+000	5.53002E-001	0.00000E+000	10	...........	1505.30
	393	15.76	5.59118E-001	1.06908E-005	0.00000E+000	5.59001E-001	0.00000E+000	10	...........	1505.30
	396	15.88	5.65117E-001	1.07160E-005	0.00000E+000	5.65001E-001	0.00000E+000	10	...........	1505.12
	399	16	5.71126E-001	1.08044E-005	0.00000E+000	5.71000E-001	0.00000E+000	10	...........	1505.12
	402	16.12	5.77133E-001	1.08937E-005	0.00000E+000	5.77000E-001	0.00000E+000	10	...........	1505.12
	405	16.24	5.83131E-001	1.10441E-005	0.00000E+000	5.82999E-001	0.00000E+000	10	...........	1505.12
	408	16.36	5.89141E-001	1.11686E-005	0.00000E+000	5.88999E-001	0.00000E+000	10	...........	1505.12
	411	16.48	5.95113E-001	1.13019E-005	0.00000E+000	5.94998E-001	0.00000E+000	10	...........	1505.12
	414	16.6	6.01114E-001	1.14440E-005	0.00000E+000	6.00998E-001	0.00000E+000	10	...........	1505.12
	417	16.72	6.07123E-001	1.15501E-005	0.00000E+000	6.06997E-001	0.00000E+000	10	...........	1505.12
	420	16.84	6.13117E-001	1.16936E-005	0.00000E+000	6.12997E-001	0.00000E+000	10	...........	1505.40
	423	16.96	6.19138E-001	1.17998E-005	0.00000E+000	6.18996E-001	0.00000E+000	10	...........	1505.40
	426	17.08	6.25129E-001	1.19504E-005	0.00000E+000	6.24996E-001	0.00000E+000	10	...........	1505.40
	429	17.2	6.31117E-001	1.20902E-005	0.00000E+000	6.30995E-001	0.00000E+000	10	...........	1505.40
	432	17.32	6.37112E-001	1.22172E-005	0.00000E+000	6.36995E-001	0.00000E+000	10	...........	1505.40
	435	17.44	6.43136E-001	1.23216E-005	0.00000E+000	6.42994E-001	0.00000E+000	10	...........	1505.40
	438	17.56	6.49139E-001	1.24636E-005	0.00000E+000	6.48994E-001	0.00000E+000	10	...........	1505.40
	441	17.68	6.55132E-001	1.26685E-005	0.00000E+000	6.54994E-001	0.00000E+000	10	...........	1505.40
	444	17.8	6.61139E-001	1.28532E-005	0.00000E+000	6.60993E-001	0.00000E+000	10	...........	1505.14
	447	17.92	6.67142E-001	1.30759E-005	0.00000E+000	6.66993E-001	0.00000E+000	10	...........	1505.12
	450	18.04	6.73129E-001	1.32774E-005	0.00000E+000	6.72992E-001	0.00000E+000	10	...........	1505.12
	453	18.16	6.79148E-001	1.35267E-005	0.00000E+000	6.78992E-001	0.00000E+000	10	...........	1505.12
	456	18.28	6.85142E-001	1.37191E-005	0.00000E+000	6.84991E-001	0.00000E+000	10	...........	1505.12
	459	18.4	6.91121E-001	1.39521E-005	0.00000E+000	6.90991E-001	0.00000E+000	10	...........	1505.12
	462	18.52	6.97121E-001	1.41265E-005	0.00000E+000	6.96990E-001	0.00000E+000	10	...........	1505.12
	465	18.64	7.03134E-001	1.43565E-005	0.00000E+000	7.02990E-001	0.00000E+000	10	...........	1505.12
	468	18.76	7.09138E-001	1.46379E-005	0.00000E+000	7.08989E-001	0.00000E+000	10	...........	1505.12
	471	18.88	7.15129E-001	1.47966E-005	0.00000E+000	7.14989E-001	0.00000E+000	10	...........	1505.49
	474	19	7.21150E-001	1.52028E-005	0.00000E+000	7.20988E-001	0.00000E+000	10	...........	1505.49
	477	19.12	7.27148E-001	1.54495E-005	0.00000E+000	7.26988E-001	0.00000E+000	10	...........	1505.49
	480	19.24	7.33146E-001	1.56439E-005	0.00000E+000	7.32987E-001	0.00000E+000	10	...........	1505.49
	483	19.36	7.39146E-001	1.59649E-005	0.00000E+000	7.38987E-001	0.00000E+000	10	...........	1505.49
	486	19.48	7.45165E-001	1.62084E-005	0.00000E+000	7.44987E-001	0.00000E+000	10	...........	1505.49
	489	19.6	7.51152E-001	1.66071E-005	0.00000E+000	7.50986E-001	0.00000E+000	10	...........	1505.49
	492	19.72	7.57152E-001	1.70073E-005	0.00000E+000	7.56986E-001	0.00000E+000	10	...........	1505.49
	495	19.84	7.63147E-001	1.73829E-005	0.00000E+000	7.62985E-001	0.00000E+000	10	...........	1505.12
	498	19.96	7.69179E-001	1.77187E-005	0.00000E+000	7.68985E-001	0.00000E+000	10	...........	1505.12
	501	20.08	7.75164E-001	1.81611E-005	0.00000E+000	7.74984E-001	0.00000E+000	10	...........	1505.12
	504	20.2	7.81130E-001	1.86183E-005	0.00000E+000	7.80984E-001	0.00000E+000	10	...........	1505.12
	507	20.32	7.87139E-001	1.91168E-005	0.00000E+000	7.86983E-001	0.00000E+000	10	...........	1505.12
	510	20.44	7.93135E-001	1.94881E-005	0.00000E+000	7.92983E-001	0.00000E+000	10	...........	1505.12
	513	20.56	7.99162E-001	1.99948E-005	0.00000E+000	7.98982E-001	0.00000E+000	10	...........	1505.12
	516	20.68	8.05146E-001	2.04352E-005	0.00000E+000	8.04982E-001	0.00000E+000	10	...........	1505.12
	519	20.8	8.11147E-001	2.08234E-005	0.00000E+000	8.10981E-001	0.00000E+000	10	...........	1505.12
	522	20.92	8.17152E-001	2.12453E-005	0.00000E+000	8.16981E-001	0.00000E+000	10	...........	1505.12
	525	21.04	8.23162E-001	2.16381E-005	0.00000E+000	8.22980E-001	0.00000E+000	10	...........	1505.12
	528	21.16	8.29161E-001	2.21354E-005	0.00000E+000	8.28980E-001	0.00000E+000	10	...........	1505.12
	531	21.28	8.35171E-001	2.25409E-005	0.00000E+000	8.34979E-001	0.00000E+000	10	...........	1505.12
	534	21.4	8.41135E-001	2.30058E-005	0.00000E+000	8.40979E-001	0.00000E+000	10	...........	1505.12
	537	21.52	8.47185E-001	2.34788E-005	0.00000E+000	8.46979E-001	0.00000E+000	10	...........	1505.12
	540	21.64	8.53175E-001	2.39565E-005	0.00000E+000	8.52978E-001	0.00000E+000	10	...........	1505.12
	543	21.76	8.59167E-001	2.44752E-005	0.00000E+000	8.58978E-001	0.00000E+000	10	...........	1505.12
	546	21.88	8.65173E-001	2.50072E-005	0.00000E+000	8.64977E-001	0.00000E+000	10	...........	1505.12
	549	22	8.71176E-001	2.54444E-005	0.00000E+000	8.70977E-001	0.00000E+000	10	...........	1505.12
	552	22.12	8.77162E-001	2.59248E-005	0.00000E+000	8.76976E-001	0.00000E+000	10	...........	1505.12
	555	22.24	8.83152E-001	2.64560E-005	0.00000E+000	8.82976E-001	0.00000E+000	10	...........	1505.12
	558	22.36	8.89154E-001	2.69164E-005	0.00000E+000	8.88975E-001	0.00000E+000	10	...........	1505.12
	561	22.48	8.95167E-001	2.74859E-005	0.00000E+000	8.94975E-001	0.00000E+000	10	...........	1505.12
	564	22.6	9.01184E-001	2.79779E-005	0.00000E+000	9.00974E-001	0.00000E+000	10	...........	1505.12
	567	22.72	9.07171E-001	2.85540E-005	0.00000E+000	9.06974E-001	0.00000E+000	10	...........	1505.12
	570	22.84	9.13187E-001	2.90942E-005	0.00000E+000	9.12973E-001	0.00000E+000	10	...........	1505.21
	573	22.96	9.19228E-001	2.97429E-005	0.00000E+000	9.19023E-001	0.00000E+000	10	...........	1505.21
	576	23.08	9.25250E-001	3.02639E-005	0.00000E+000	9.25022E-001	0.00000E+000	10	...........	1505.21
	579	23.2	9.31235E-001	3.07162E-005	0.00000E+000	9.31022E-001	0.00000E+000	10	...........	1505.21
	582	23.32	9.37213E-001	3.12630E-005	0.00000E+000	9.37021E-001	0.00000E+000	10	...........	1505.21
	585	23.44	9.43220E-001	3.18504E-005	0.00000E+000	9.43021E-001	0.00000E+000	10	...........	1505.21
	588	23.56	9.49225E-001	3.23563E-005	0.00000E+000	9.49021E-001	0.00000E+000	10	...........	1505.21
	591	23.68	9.55230E-001	3.28930E-005	0.00000E+000	9.55020E-001	0.00000E+000	10	...........	1505.21
	594	23.8	9.61227E-001	3.33949E-005	0.00000E+000	9.61020E-001	0.00000E+000	10	...........	1505.12
	597	23.92	9.67224E-001	3.39369E-005	0.00000E+000	9.67019E-001	0.00000E+000	10	...........	1505.12
	600	24.04	9.73222E-001	3.44475E-005	0.00000E+000	9.73019E-001	0.00000E+000	10	...........	1505.12
	603	24.16	9.79226E-001	3.49537E-005	0.00000E+000	9.79018E-001	0.00000E+000	10	...........	1505.12
	606	24.28	9.85200E-001	3.53042E-005	0.00000E+000	9.85018E-001	0.00000E+000	10	...........	1505.12
	609	24.4	9.91215E-001	3.59415E-005	0.00000E+000	9.91017E-001	0.00000E+000	10	...........	1505.12
	612	24.52	9.97213E-001	3.67111E-005	0.00000E+000	9.97017E-001	0.00000E+000	10	...........	1505.12
	615	24.64	1.00322E+000	3.72519E-005	0.00000E+000	1.00302E+000	0.00000E+000	10	...........	1505.12
	618	24.76	1.00921E+000	3.76997E-005	0.00000E+000	1.00902E+000	0.00000E+000	10	...........	1505.12
	621	24.88	1.01523E+000	3.81759E-005	0.00000E+000	1.01502E+000	0.00000E+000	10	...........	1505.21
	624	25	1.02122E+000	3.87354E-005	0.00000E+000	1.02101E+000	0.00000E+000	10	...........	1505.21
	627	25.12	1.02724E+000	3.91968E-005	0.00000E+000	1.02701E+000	0.00000E+000	10	...........	1505.21
	630	25.24	1.03323E+000	3.96875E-005	0.00000E+000	1.03301E+000	0.00000E+000	10	...........	1505.21
	633	25.36	1.03923E+000	4.01297E-005	0.00000E+000	1.03901E+000	0.00000E+000	10	...........	1505.21
	636	25.48	1.04522E+000	4.06461E-005	0.00000E+000	1.04501E+000	0.00000E+000	10	...........	1505.21
	639	25.6	1.05124E+000	4.10538E-005	0.00000E+000	1.05101E+000	0.00000E+000	10	...........	1505.21
	642	25.72	1.05724E+000	4.15293E-005	0.00000E+000	1.05701E+000	0.00000E+000	10	...........	1505.21
	645	25.84	1.06325E+000	4.19935E-005	0.00000E+000	1.06301E+000	0.00000E+000	10	...........	1505.12
	648	25.96	1.06921E+000	4.23303E-005	0.00000E+000	1.06901E+000	0.00000E+000	10	...........	1505.12
	651	26.08	1.07523E+000	4.27078E-005	0.00000E+000	1.07501E+000	0.00000E+000	10	...........	1505.12
	654	26.2	1.08124E+000	4.31718E-005	0.00000E+000	1.08101E+000	0.00000E+000	10	...........	1505.12
	657	26.32	1.08723E+000	4.35362E-005	0.00000E+000	1.08701E+000	0.00000E+000	10	...........	1505.12
	660	26.44	1.09322E+000	4.39294E-005	0.00000E+000	1.09301E+000	0.00000E+000	10	...........	1505.12
	663	26.56	1.09921E+000	4.41650E-005	0.00000E+000	1.09901E+000	0.00000E+000	10	...........	1505.12
	666	26.68	1.10526E+000	4.45200E-005	0.00000E+000	1.10501E+000	0.00000E+000	10	...........	1505.12
	669	26.8	1.11122E+000	4.48797E-005	0.00000E+000	1.11101E+000	0.00000E+000	10	...........	1505.30
	672	26.92	1.11724E+000	4.53017E-005	0.00000E+000	1.11701E+000	0.00000E+000	10	...........	1505.30
	675	27.04	1.12324E+000	4.56967E-005	0.00000E+000	1.12301E+000	0.00000E+000	10	...........	1505.30
	678	27.16	1.12926E+000	4.59218E-005	0.00000E+000	1.12901E+000	0.00000E+000	10	...........	1505.30
	681	27.28	1.13526E+000	4.61743E-005	0.00000E+000	1.13501E+000	0.00000E+000	10	...........	1505.30
	684	27.4	1.14124E+000	4.65737E-005	0.00000E+000	1.14101E+000	0.00000E+000	10	...........	1505.30
	687	27.52	1.14723E+000	4.72093E-005	0.00000E+000	1.14701E+000	0.00000E+000	10	...........	1505.30
	690	27.64	1.15326E+000	4.76504E-005	0.00000E+000	1.15300E+000	0.00000E+000	10	...........	1505.30
	693	27.76	1.15926E+000	4.80488E-005	0.00000E+000	1.15900E+000	0.00000E+000	10	...........	1505.30
	696	27.88	1.16524E+000	4.84629E-005	0.00000E+000	1.16500E+000	0.00000E+000	10	...........	1505.49
	699	28	1.17124E+000	4.87934E-005	0.00000E+000	1.17100E+000	0.00000E+000	10	...........	1505.49
	702	28.12	1.17724E+000	4.92659E-005	0.00000E+000	1.17700E+000	0.00000E+000	10	...........	1505.49
	705	28.24	1.18325E+000	4.95274E-005	0.00000E+000	1.18300E+000	0.00000E+000	10	...........	1505.49
	708	28.36	1.18923E+000	4.99653E-005	0.00000E+000	1.18900E+000	0.00000E+000	10	...........	1505.49
	711	28.48	1.19525E+000	5.03068E-005	0.00000E+000	1.19500E+000	0.00000E+000	10	...........	1505.49
	714	28.6	1.20123E+000	5.07143E-005	0.00000E+000	1.20100E+000	0.00000E+000	10	...........	1505.49
	717	28.72	1.20725E+000	5.10798E-005	0.00000E+000	1.20700E+000	0.00000E+000	10	...........	1505.49
	720	28.84	1.21323E+000	5.14602E-005	0.00000E+000	1.21300E+000	0.00000E+000	10	...........	1505.12
	723	28.96	1.21924E+000	5.18736E-005	0.00000E+000	1.21900E+000	0.00000E+000	10	...........	1505.12
	726	29.08	1.22524E+000	5.22510E-005	0.00000E+000	1.22500E+000	0.00000E+000	10	...........	1505.12
	729	29.2	1.23128E+000	5.26806E-005	0.00000E+000	1.23100E+000	0.00000E+000	10	...........	1505.12
	732	29.32	1.23726E+000	5.31067E-005	0.00000E+000	1.23700E+000	0.00000E+000	10	...........	1505.12
	735	29.44	1.24328E+000	5.35181E-005	0.00000E+000	1.24300E+000	0.00000E+000	10	...........	1505.12
	738	29.56	1.24926E+000	5.39214E-005	0.00000E+000	1.24900E+000	0.00000E+000	10	...........	1505.12
	741	29.68	1.25527E+000	5.43347E-005	0.00000E+000	1.25500E+000	0.00000E+000	10	...........	1505.12
	744	29.8	1.26126E+000	5.47610E-005	0.00000E+000	1.26100E+000	0.00000E+000	10	...........	1505.12
	747	29.92	1.26727E+000	5.51342E-005	0.00000E+000	1.26700E+000	0.00000E+000	10	...........	1505.12
	750	30.04	1.27326E+000	5.56057E-005	0.00000E+000	1.27300E+000	0.00000E+000	10	...........	1505.12
	753	30.16	1.26726E+000	4.44924E-005	0.00000E+000	1.26700E+000	0.00000E+000	10	...........	1505.12
	756	30.28	1.26125E+000	3.77401E-005	0.00000E+000	1.26100E+000	0.00000E+000	10	...........	1505.12
	759	30.4	1.25528E+000	3.27958E-005	0.00000E+000	1.25500E+000	0.00000E+000	10	...........	1505.12
	762	30.52	1.24926E+000	2.89644E-005	0.00000E+000	1.24900E+000	0.00000E+000	10	...........	1505.12
	765	30.64	1.24328E+000	2.56831E-005	0.00000E+000	1.24300E+000	0.00000E+000	10	...........	1505.12
	768	30.76	1.23726E+000	2.28636E-005	0.00000E+000	1.23700E+000	0.00000E+000	10	...........	1505.12
	771	30.88	1.23126E+000	2.04147E-005	0.00000E+000	1.23100E+000	0.00000E+000	10	...........	1505.12
	774	31	1.22525E+000	1.82809E-005	0.00000E+000	1.22500E+000	0.00000E+000	10	...........	1505.12
	777	31.12	1.21926E+000	1.65102E-005	0.00000E+000	1.21900E+000	0.00000E+000	10	...........	1505.12
	780	31.24	1.21324E+000	1.49698E-005	0.00000E+000	1.21300E+000	0.00000E+000	10	...........	1505.12
	783	31.36	1.20727E+000	1.37045E-005	0.00000E+000	1.20700E+000	0.00000E+000	10	...........	1505.12
	786	31.48	1.20124E+000	1.24211E-005	0.00000E+000	1.20100E+000	0.00000E+000	10	...........	1505.12
	789	31.6	1.19524E+000	1.13587E-005	0.00000E+000	1.19500E+000	0.00000E+000	10	...........	1505.12
	792	31.72	1.18922E+000	1.04272E-005	0.00000E+000	1.18900E+000	0.00000E+000	10	...........	1505.12
	795	31.84	1.18324E+000	9.57882E-006	0.00000E+000	1.18300E+000	0.00000E+000	10	...........	1505.21
	798	31.96	1.17723E+000	8.75239E-006	0.00000E+000	1.17700E+000	0.00000E+000	10	...........	1505.21
	801	32.08	1.17124E+000	8.03796E-006	0.00000E+000	1.17100E+000	0.00000E+000	10	...........	1505.21
	804	32.2	1.16524E+000	7.36300E-006	0.00000E+000	1.16500E+000	0.00000E+000	10	...........	1505.21
	807	32.32	1.15925E+000	6.79240E-006	0.00000E+000	1.15900E+000	0.00000E+000	10	...........	1505.21
	810	32.44	1.15326E+000	6.17094E-006	0.00000E+000	1.15300E+000	0.00000E+000	10	...........	1505.21
	813	32.56	1.14725E+000	5.72625E-006	0.00000E+000	1.14701E+000	0.00000E+000	10	...........	1505.21
	816	32.68	1.14124E+000	5.25209E-006	0.00000E+000	1.14101E+000	0.00000E+000	10	...........	1505.21
	819	32.8	1.13525E+000	4.76668E-006	0.00000E+000	1.13501E+000	0.00000E+000	10	...........	1505.12
	822	32.92	1.12924E+000	4.39995E-006	0.00000E+000	1.12901E+000	0.00000E+000	10	...........	1505.12
	825	33.04	1.12323E+000	4.04934E-006	0.00000E+000	1.12301E+000	0.00000E+000	10	...........	1505.12
	828	33.16	1.11722E+000	3.61326E-006	0.00000E+000	1.11701E+000	0.00000E+000	10	...........	1505.12
	831	33.28	1.11123E+000	3.34464E-006	0.00000E+000	1.11101E+000	0.00000E+000	10	...........	1505.12
	834	33.4	1.10525E+000	3.02085E-006	0.00000E+000	1.10501E+000	0.00000E+000	10	...........	1505.12
	837	33.52	1.09923E+000	2.82323E-006	0.00000E+000	1.09901E+000	0.00000E+000	10	...........	1505.12
	840	33.64	1.09322E+000	2.47610E-006	0.00000E+000	1.09301E+000	0.00000E+000	10	...........	1505.12
	843	33.76	1.08724E+000	2.26820E-006	0.00000E+000	1.08701E+000	0.00000E+000	10	...........	1505.13
	846	33.88	1.08124E+000	2.02570E-006	0.00000E+000	1.08101E+000	0.00000E+000	10	...........	1505.21
	849	34	1.07523E+000	1.82809E-006	0.00000E+000	1.07501E+000	0.00000E+000	10	...........	1505.21
	852	34.12	1.06922E+000	1.53877E-006	0.00000E+000	1.06901E+000	0.00000E+000	10	...........	1505.21
	855	34.24	1.06325E+000	1.32559E-006	0.00000E+000	1.06301E+000	0.00000E+000	10	...........	1505.21
	858	34.36	1.05724E+000	1.12895E-006	0.00000E+000	1.05701E+000	0.00000E+000	10	...........	1505.21
	861	34.48	1.05125E+000	9.15083E-007	0.00000E+000	1.05101E+000	0.00000E+000	10	...........	1505.21
	864	34.6	1.04522E+000	6.90930E-007	0.00000E+000	1.04501E+000	0.00000E+000	10	...........	1505.21
	867	34.72	1.03924E+000	5.51408E-007	0.00000E+000	1.03901E+000	0.00000E+000	10	...........	1505.21
	870	34.84	1.03323E+000	3.87983E-007	0.00000E+000	1.03301E+000	0.00000E+000	10	...........	1505.12
	873	34.96	1.02724E+000	2.37760E-007	0.00000E+000	1.02701E+000	0.00000E+000	10	...........	1505.12
	876	35.08	1.02124E+000	7.07221E-008	0.00000E+000	1.02101E+000	0.00000E+000	10	...........	1505.12
	879	35.2	1.01523E+000	-1.06043E-007	0.00000E+000	1.01502E+000	0.00000E+000	10	...........	1505.12
	882	35.32	1.00923E+000	-1.93731E-007	0.00000E+000	1.00902E+000	0.00000E+000	10	...........	1505.12
	885	35.44	1.00322E+000	-3.36589E-007	0.00000E+000	1.00302E+000	0.00000E+000	10	...........	1505.12
	888	35.56	9.97204E-001	-4.79030E-007	0.00000E+000	9.97017E-001	0.00000E+000	10	...........	1505.12
	891	35.68	9.91221E-001	-6.33839E-007	0.00000E+000	9.91017E-001	0.00000E+000	10	...........	1505.12
	894	35.8	9.85224E-001	-8.31588E-007	0.00000E+000	9.85018E-001	0.00000E+000	10	...........	1505.21
	897	35.92	9.79235E-001	-1.03907E-006	0.00000E+000	9.79018E-001	0.00000E+000	10	...........	1505.21
	900	36.04	9.73226E-001	-1.10271E-006	0.00000E+000	9.73019E-001	0.00000E+000	10	...........	1505.21
	903	36.16	9.67224E-001	-1.31394E-006	0.00000E+000	9.67019E-001	0.00000E+000	10	...........	1505.21
	906	36.28	9.61222E-001	-1.49418E-006	0.00000E+000	9.61020E-001	0.00000E+000	10	...........	1505.21
	909	36.4	9.55212E-001	-1.57840E-006	0.00000E+000	9.55020E-001	0.00000E+000	10	...........	1505.21
	912	36.52	9.49212E-001	-1.75822E-006	0.00000E+000	9.49021E-001	0.00000E+000	10	...........	1505.21
	915	36.64	9.43207E-001	-1.91761E-006	0.00000E+000	9.43021E-001	0.00000E+000	10	...........	1505.21
	918	36.76	9.37212E-001	-2.03282E-006	0.00000E+000	9.37021E-001	0.00000E+000	10	...........	1505.20
	921	36.88	9.31237E-001	-2.06492E-006	0.00000E+000	9.31022E-001	0.00000E+000	10	...........	1505.12
	924	37	9.25240E-001	-2.25586E-006	0.00000E+000	9.25022E-001	0.00000E+000	10	...........	1505.12
	927	37.12	9.19204E-001	-2.48751E-006	0.00000E+000	9.19023E-001	0.00000E+000	10	...........	1505.12
	930	37.24	9.13171E-001	-2.58104E-006	0.00000E+000	9.12973E-001	0.00000E+000	10	...........	1505.12
	933	37.36	9.07170E-001	-2.81228E-006	0.00000E+000	9.06974E-001	0.00000E+000	10	...........	1505.12
	936	37.48	9.01176E-001	-2.98404E-006	0.00000E+000	9.00974E-001	0.00000E+000	10	...........	1505.12
	939	37.6	8.95166E-001	-3.10397E-006	0.00000E+000	8.94975E-001	0.00000E+000	10	...........	1505.12
	942	37.72	8.89152E-001	-3.24891E-006	0.00000E+000	8.88975E-001	0.00000E+000	10	...........	1505.12
	945	37.84	8.83150E-001	-3.42624E-006	0.00000E+000	8.82976E-001	0.00000E+000	10	...........	1505.21
	948	37.96	8.77153E-001	-3.65094E-006	0.00000E+000	8.76976E-001	0.00000E+000	10	...........	1505.21
	951	38.08	8.71186E-001	-3.86801E-006	0.00000E+000	8.70977E-001	0.00000E+000	10	...........	1505.21
	954	38.2	8.65156E-001	-4.06368E-006	0.00000E+000	8.64977E-001	0.00000E+000	10	...........	1505.21
	957	38.32	8.59163E-001	-4.28088E-006	0.00000E+000	8.58978E-001	0.00000E+000	10	...........	1505.21
	960	38.44	8.53173E-001	-4.42165E-006	0.00000E+000	8.52978E-001	0.00000E+000	10	...........	1505.21
	963	38.56	8.47190E-001	-4.58536E-006	0.00000E+000	8.46979E-001	0.00000E+000	10	...........	1505.21
	966	38.68	8.41161E-001	-4.79256E-006	0.00000E+000	8.40979E-001	0.00000E+000	10	...........	1505.21
	969	38.8	8.35155E-001	-5.02852E-006	0.00000E+000	8.34979E-001	0.00000E+000	10	...........	1505.12
	972	38.92	8.29147E-001	-5.24642E-006	0.00000E+000	8.28980E-001	0.00000E+000	10	...........	1505.12
	975	39.04	8.23170E-001	-5.52616E-006	0.00000E+000	8.22980E-001	0.00000E+000	10	...........	1505.12
	978	39.16	8.17154E-001	-5.78075E-006	0.00000E+000	8.16981E-001	0.00000E+000	10	...........	1505.12
	981	39.28	8.11163E-001	-6.02074E-006	0.00000E+000	8.10981E-001	0.00000E+000	10	...........	1505.12
	984	39.4	8.05153E-001	-6.29840E-006	0.00000E+000	8.04982E-001	0.00000E+000	10	...........	1505.12
	987	39.52	7.99158E-001	-6.61524E-006	0.00000E+000	7.98982E-001	0.00000E+000	10	...........	1505.12
	990	39.64	7.93135E-001	-6.84884E-006	0.00000E+000	7.92983E-001	0.00000E+000	10	...........	1505.12
	993	39.76	7.87146E-001	-7.16041E-006	0.00000E+000	7.86983E-001	0.00000E+000	10	...........	1505.13
	996	39.88	7.81150E-001	-7.41958E-006	0.00000E+000	7.80984E-001	0.00000E+000	10	...........	1505.21
	999	40	7.75161E-001	-7.76616E-006	0.00000E+000	7.74984E-001	0.00000E+000	10	...........	1505.21
	1002	40.12	7.69176E-001	-8.12901E-006	0.00000E+000	7.68985E-001	0.00000E+000	10	...........	1505.21
	1005	40.24	7.63146E-001	-8.52659E-006	0.00000E+000	7.62985E-001	0.00000E+000	10	...........	1505.21
	1008	40.36	7.57159E-001	-8.81411E-006	0.00000E+000	7.56986E-001	0.00000E+000	10	...........	1505.21
	1011	40.48	7.51153E-001	-9.22656E-006	0.00000E+000	7.50986E-001	0.00000E+000	10	...........	1505.21
	1014	40.6	7.45166E-001	-9.63554E-006	0.00000E+000	7.44987E-001	0.00000E+000	10	...........	1505.21
	1017	40.72	7.39153E-001	-1.00356E-005	0.00000E+000	7.38987E-001	0.00000E+000	10	...........	1505.21
	1020	40.84	7.33157E-001	-1.05283E-005	0.00000E+000	7.32987E-001	0.00000E+000	10	...........	1505.03
	1023	40.96	7.27148E-001	-1.10013E-005	0.00000E+000	7.26988E-001	0.00000E+000	10	...........	1505.03
	1026	41.08	7.21149E-001	-1.14924E-005	0.00000E+000	7.20988E-001	0.00000E+000	10	...........	1505.03
	1029	41.2	7.15141E-001	-1.20062E-005	0.00000E+000	7.14989E-001	0.00000E+000	10	...........	1505.03
	1032	41.32	7.09136E-001	-1.26331E-005	0.00000E+000	7.08989E-001	0.00000E+000	10	...........	1505.03
	1035	41.44	7.03129E-001	-1.31447E-005	0.00000E+000	7.02990E-001	0.00000E+000	10	...........	1505.03
	1038	41.56	6.97125E-001	-1.37392E-005	0.00000E+000	6.96990E-001	0.00000E+000	10	...........	1505.03
	1041	41.68	6.91122E-001	-1.44174E-005	0.00000E+000	6.90991E-001	0.00000E+000	10	...........	1505.03
	1044	41.8	6.85148E-001	-1.50623E-005	0.00000E+000	6.84991E-001	0.00000E+000	10	...........	1505.49
	1047	41.92	6.79160E-001	-1.57410E-005	0.00000E+000	6.78992E-001	0.00000E+000	10	...........	1505.49
	1050	42.04	6.73141E-001	-1.64535E-005	0.00000E+000	6.72992E-001	0.00000E+000	10	...........	1505.49
	1053	42.16	6.67146E-001	-1.72363E-005	0.00000E+000	6.66993E-001	0.00000E+000	10	...........	1505.49
	1056	42.28	6.61128E-001	-1.80705E-005	0.00000E+000	6.60993E-001	0.00000E+000	10	...........	1505.49
	1059	42.4	6.55138E-001	-1.90123E-005	0.00000E+000	6.54994E-001	0.00000E+000	10	...........	1505.49
	1062	42.52	6.49130E-001	-2.00027E-005	0.00000E+000	6.48994E-001	0.00000E+000	10	...........	1505.49
	1065	42.64	6.43135E-001	-2.10152E-005	0.00000E+000	6.42994E-001	0.00000E+000	10	...........	1505.49
	1068	42.76	6.37131E-001	-2.20924E-005	0.00000E+000	6.36995E-001	0.00000E+000	10	...........	1505.42
	1071	42.88	6.31126E-001	-2.31292E-005	0.00000E+000	6.30995E-001	0.00000E+000	10	...........	1505.03
	1074	43	6.25119E-001	-2.42469E-005	0.00000E+000	6.24996E-001	0.00000E+000	10	...........	1505.03
	1077	43.12	6.19143E-001	-2.54722E-005	0.00000E+000	6.18996E-001	0.00000E+000	10	...........	1505.03
	1080	43.24	6.13119E-001	-2.67541E-005	0.00000E+000	6.12997E-001	0.00000E+000	10	...........	1505.03
	1083	43.36	6.07123E-001	-2.81552E-005	0.00000E+000	6.06997E-001	0.00000E+000	10	...........	1505.03
	1086	43.48	6.01111E-001	-2.95156E-005	0.00000E+000	6.00998E-001	0.00000E+000	10	...........	1505.03
	1089	43.6	5.95114E-001	-3.09247E-005	0.00000E+000	5.94998E-001	0.00000E+000	10	...........	1505.03
	1092	43.72	5.89126E-001	-3.24019E-005	0.00000E+000	5.88999E-001	0.00000E+000	10	...........	1505.03
	1095	43.84	5.83117E-001	-3.38321E-005	0.00000E+000	5.82999E-001	0.00000E+000	10	...........	1505.21
	1098	43.96	5.77124E-001	-3.54032E-005	0.00000E+000	5.77000E-001	0.00000E+000	10	...........	1505.21
	1101	44.08	5.71120E-001	-3.69429E-005	0.00000E+000	5.71000E-001	0.00000E+000	10	...........	1505.21
	1104	44.2	5.65110E-001	-3.85359E-005	0.00000E+000	5.65001E-001	0.00000E+000	10	...........	1505.21
	1107	44.32	5.59109E-001	-4.00813E-005	0.00000E+000	5.59001E-001	0.00000E+000	10	...........	1505.21
	1110	44.44	5.53125E-001	-4.17221E-005	0.00000E+000	5.53002E-001	0.00000E+000	10	...........	1505.21
	1113	44.56	5.47112E-001	-4.32364E-005	0.00000E+000	5.47002E-001	0.00000E+000	10	...........	1505.21
	1116	44.68	5.41130E-001	-4.44466E-005	0.00000E+000	5.41002E-001	0.00000E+000	10	...........	1505.21
	1119	44.8	5.35114E-001	-4.55802E-005	0.00000E+000	5.35003E-001	0.00000E+000	10	...........	1505.03
	1122	44.92	5.29113E-001	-4.68818E-005	0.00000E+000	5.29003E-001	0.00000E+000	10	...........	1505.03
	1125	45.04	5.23112E-001	-4.77245E-005	0.00000E+000	5.23004E-001	0.00000E+000	10	...........	1505.03
	1128	45.16	5.17133E-001	-4.78082E-005	0.00000E+000	5.17004E-001	0.00000E+000	10	...........	1505.03
	1131	45.28	5.11116E-001	-4.76043E-005	0.00000E+000	5.11005E-001	0.00000E+000	10	...........	1505.03
	1134	45.4	5.05096E-001	-4.73775E-005	0.00000E+000	5.05005E-001	0.00000E+000	10	...........	1505.03
	1137	45.52	4.99094E-001	-4.70199E-005	0.00000E+000	4.99006E-001	0.00000E+000	10	...........	1505.03
	1140	45.64	4.93115E-001	-4.62944E-005	0.00000E+000	4.93006E-001	0.00000E+000	10	...........	1505.03
	1143	45.76	4.87121E-001	-4.54257E-005	0.00000E+000	4.87007E-001	0.00000E+000	10	...........	1505.04
[...]
	3721	148.88	1.21524E+000	4.17388E-005	0.00000E+000	1.21500E+000	0.00000E+000	10	...........	1505.03
	3725	149.04	1.22325E+000	4.23076E-005	0.00000E+000	1.22300E+000	0.00000E+000	10	...........	1505.03
	3729	149.2	1.23129E+000	4.27928E-005	0.00000E+000	1.23100E+000	0.00000E+000	10	...........	1505.03
	3733	149.36	1.23927E+000	4.34599E-005	0.00000E+000	1.23900E+000	0.00000E+000	10	...........	1505.03
	3737	149.52	1.24727E+000	4.39651E-005	0.00000E+000	1.24700E+000	0.00000E+000	10	...........	1505.03
	3741	149.68	1.25528E+000	4.46911E-005	0.00000E+000	1.25500E+000	0.00000E+000	10	...........	1505.03
	3745	149.84	1.26326E+000	4.53889E-005	0.00000E+000	1.26300E+000	0.00000E+000	10	...........	1505.12
	3749	150	1.27127E+000	4.60328E-005	0.00000E+000	1.27100E+000	0.00000E+000	10	...........	1505.12
	3753	150.16	1.26727E+000	3.58805E-005	0.00000E+000	1.26700E+000	0.00000E+000	10	...........	1505.12
	3757	150.32	1.25926E+000	2.86826E-005	0.00000E+000	1.25900E+000	0.00000E+000	10	...........	1505.12
	3761	150.48	1.25125E+000	2.36386E-005	0.00000E+000	1.25100E+000	0.00000E+000	10	...........	1505.12
	3765	150.64	1.24328E+000	1.97900E-005	0.00000E+000	1.24300E+000	0.00000E+000	10	...........	1505.12
	3769	150.8	1.23526E+000	1.68232E-005	0.00000E+000	1.23500E+000	0.00000E+000	10	...........	1505.03
	3773	150.96	1.22726E+000	1.43800E-005	0.00000E+000	1.22700E+000	0.00000E+000	10	...........	1505.03
	3777	151.12	1.21925E+000	1.23840E-005	0.00000E+000	1.21900E+000	0.00000E+000	10	...........	1505.03
	3781	151.28	1.21125E+000	1.08480E-005	0.00000E+000	1.21100E+000	0.00000E+000	10	...........	1505.03
	3785	151.44	1.20324E+000	9.47515E-006	0.00000E+000	1.20300E+000	0.00000E+000	10	...........	1505.03
	3789	151.6	1.19525E+000	8.25475E-006	0.00000E+000	1.19500E+000	0.00000E+000	10	...........	1505.03
	3793	151.76	1.18724E+000	7.22500E-006	0.00000E+000	1.18700E+000	0.00000E+000	10	...........	1505.21
	3797	151.92	1.17926E+000	6.36035E-006	0.00000E+000	1.17900E+000	0.00000E+000	10	...........	1505.21
	3801	152.08	1.17124E+000	5.59423E-006	0.00000E+000	1.17100E+000	0.00000E+000	10	...........	1505.21
	3805	152.24	1.16325E+000	4.72652E-006	0.00000E+000	1.16300E+000	0.00000E+000	10	...........	1505.21
	3809	152.4	1.15526E+000	4.25306E-006	0.00000E+000	1.15500E+000	0.00000E+000	10	...........	1505.21
	3813	152.56	1.14723E+000	3.81671E-006	0.00000E+000	1.14701E+000	0.00000E+000	10	...........	1505.21
	3817	152.72	1.13924E+000	3.41440E-006	0.00000E+000	1.13901E+000	0.00000E+000	10	...........	1505.20
	3821	152.88	1.13126E+000	2.97360E-006	0.00000E+000	1.13101E+000	0.00000E+000	10	...........	1505.12
	3825	153.04	1.12324E+000	2.52084E-006	0.00000E+000	1.12301E+000	0.00000E+000	10	...........	1505.12
	3829	153.2	1.11524E+000	2.16801E-006	0.00000E+000	1.11501E+000	0.00000E+000	10	...........	1505.12
	3833	153.36	1.10723E+000	1.78502E-006	0.00000E+000	1.10701E+000	0.00000E+000	10	...........	1505.12
	3837	153.52	1.09923E+000	1.47693E-006	0.00000E+000	1.09901E+000	0.00000E+000	10	...........	1505.12
	3841	153.68	1.09125E+000	1.16508E-006	0.00000E+000	1.09101E+000	0.00000E+000	10	...........	1505.12
	3845	153.84	1.08324E+000	8.55884E-007	0.00000E+000	1.08301E+000	0.00000E+000	10	...........	1505.30
	3849	154	1.07523E+000	6.86761E-007	0.00000E+000	1.07501E+000	0.00000E+000	10	...........	1505.30
	3853	154.16	1.06723E+000	4.50101E-007	0.00000E+000	1.06701E+000	0.00000E+000	10	...........	1505.30
	3857	154.32	1.05923E+000	1.29088E-007	0.00000E+000	1.05901E+000	0.00000E+000	10	...........	1505.30
	3861	154.48	1.05123E+000	-4.69827E-008	0.00000E+000	1.05101E+000	0.00000E+000	10	...........	1505.30
	3865	154.64	1.04321E+000	-2.27778E-007	0.00000E+000	1.04301E+000	0.00000E+000	10	...........	1505.30
	3869	154.8	1.03521E+000	-4.62493E-007	0.00000E+000	1.03501E+000	0.00000E+000	10	...........	1505.21
	3873	154.96	1.02724E+000	-6.17302E-007	0.00000E+000	1.02701E+000	0.00000E+000	10	...........	1505.21
	3877	155.12	1.01923E+000	-8.63412E-007	0.00000E+000	1.01902E+000	0.00000E+000	10	...........	1505.21
	3881	155.28	1.01123E+000	-9.95152E-007	0.00000E+000	1.01102E+000	0.00000E+000	10	...........	1505.21
	3885	155.44	1.00323E+000	-1.22959E-006	0.00000E+000	1.00302E+000	0.00000E+000	10	...........	1505.21
	3889	155.6	9.95230E-001	-1.46069E-006	0.00000E+000	9.95017E-001	0.00000E+000	10	...........	1505.21
	3893	155.76	9.87228E-001	-1.71278E-006	0.00000E+000	9.87018E-001	0.00000E+000	10	...........	1505.12
	3897	155.92	9.79224E-001	-1.72250E-006	0.00000E+000	9.79018E-001	0.00000E+000	10	...........	1505.12
	3901	156.08	9.71204E-001	-1.88218E-006	0.00000E+000	9.71019E-001	0.00000E+000	10	...........	1505.12
	3905	156.24	9.63211E-001	-2.05033E-006	0.00000E+000	9.63019E-001	0.00000E+000	10	...........	1505.12
	3909	156.4	9.55220E-001	-2.25266E-006	0.00000E+000	9.55020E-001	0.00000E+000	10	...........	1505.12
	3913	156.56	9.47224E-001	-2.54171E-006	0.00000E+000	9.47021E-001	0.00000E+000	10	...........	1505.12
	3917	156.72	9.39233E-001	-2.69874E-006	0.00000E+000	9.39021E-001	0.00000E+000	10	...........	1505.13
	3921	156.88	9.31233E-001	-2.86425E-006	0.00000E+000	9.31022E-001	0.00000E+000	10	...........	1505.21
	3925	157.04	9.23248E-001	-3.13607E-006	0.00000E+000	9.23023E-001	0.00000E+000	10	...........	1505.21
	3929	157.2	9.15165E-001	-3.42123E-006	0.00000E+000	9.14973E-001	0.00000E+000	10	...........	1505.21
	3933	157.36	9.07168E-001	-3.52518E-006	0.00000E+000	9.06974E-001	0.00000E+000	10	...........	1505.21
	3937	157.52	8.99173E-001	-3.71084E-006	0.00000E+000	8.98974E-001	0.00000E+000	10	...........	1505.21
	3941	157.68	8.91172E-001	-3.98655E-006	0.00000E+000	8.90975E-001	0.00000E+000	10	...........	1505.21
	3945	157.84	8.83150E-001	-4.20764E-006	0.00000E+000	8.82976E-001	0.00000E+000	10	...........	1505.49
	3949	158	8.75191E-001	-4.42902E-006	0.00000E+000	8.74976E-001	0.00000E+000	10	...........	1505.49
	3953	158.16	8.67167E-001	-4.68750E-006	0.00000E+000	8.66977E-001	0.00000E+000	10	...........	1505.49
	3957	158.32	8.59169E-001	-4.91068E-006	0.00000E+000	8.58978E-001	0.00000E+000	10	...........	1505.49
	3961	158.48	8.51164E-001	-5.20806E-006	0.00000E+000	8.50978E-001	0.00000E+000	10	...........	1505.49
	3965	158.64	8.43159E-001	-5.42791E-006	0.00000E+000	8.42979E-001	0.00000E+000	10	...........	1505.49
	3969	158.8	8.35179E-001	-5.81049E-006	0.00000E+000	8.34979E-001	0.00000E+000	10	...........	1505.12
	3973	158.96	8.27175E-001	-6.10204E-006	0.00000E+000	8.26980E-001	0.00000E+000	10	...........	1505.12
	3977	159.12	8.19173E-001	-6.54187E-006	0.00000E+000	8.18981E-001	0.00000E+000	10	...........	1505.12
	3981	159.28	8.11157E-001	-6.81021E-006	0.00000E+000	8.10981E-001	0.00000E+000	10	...........	1505.12
	3985	159.44	8.03142E-001	-7.20988E-006	0.00000E+000	8.02982E-001	0.00000E+000	10	...........	1505.12
	3989	159.6	7.95149E-001	-7.65541E-006	0.00000E+000	7.94983E-001	0.00000E+000	10	...........	1505.12
	3993	159.76	7.87147E-001	-8.08051E-006	0.00000E+000	7.86983E-001	0.00000E+000	10	...........	1505.12
	3997	159.92	7.79145E-001	-8.59413E-006	0.00000E+000	7.78984E-001	0.00000E+000	10	...........	1505.12
	4001	160.08	7.71160E-001	-9.22517E-006	0.00000E+000	7.70984E-001	0.00000E+000	10	...........	1505.12
	4005	160.24	7.63157E-001	-9.73907E-006	0.00000E+000	7.62985E-001	0.00000E+000	10	...........	1505.12
	4009	160.4	7.55140E-001	-1.04250E-005	0.00000E+000	7.54986E-001	0.00000E+000	10	...........	1505.12
	4013	160.56	7.47160E-001	-1.11436E-005	0.00000E+000	7.46986E-001	0.00000E+000	10	...........	1505.12
	4017	160.72	7.39126E-001	-1.19663E-005	0.00000E+000	7.38987E-001	0.00000E+000	10	...........	1505.15
	4021	160.88	7.31140E-001	-1.26884E-005	0.00000E+000	7.30988E-001	0.00000E+000	10	...........	1505.30
	4025	161.04	7.23138E-001	-1.30947E-005	0.00000E+000	7.22988E-001	0.00000E+000	10	...........	1505.30
	4029	161.2	7.15143E-001	-1.37597E-005	0.00000E+000	7.14989E-001	0.00000E+000	10	...........	1505.30
	4033	161.36	7.07122E-001	-1.45684E-005	0.00000E+000	7.06989E-001	0.00000E+000	10	...........	1505.30
	4037	161.52	6.99135E-001	-1.53601E-005	0.00000E+000	6.98990E-001	0.00000E+000	10	...........	1505.30
	4041	161.68	6.91120E-001	-1.65469E-005	0.00000E+000	6.90991E-001	0.00000E+000	10	...........	1505.30
	4045	161.84	6.83147E-001	-1.77021E-005	0.00000E+000	6.82991E-001	0.00000E+000	10	...........	1505.12
	4049	162	6.75149E-001	-1.89289E-005	0.00000E+000	6.74992E-001	0.00000E+000	10	...........	1505.12
	4053	162.16	6.67158E-001	-2.04458E-005	0.00000E+000	6.66993E-001	0.00000E+000	10	...........	1505.12
	4057	162.32	6.59107E-001	-2.20043E-005	0.00000E+000	6.58993E-001	0.00000E+000	10	...........	1505.12
	4061	162.48	6.51131E-001	-2.38082E-005	0.00000E+000	6.50994E-001	0.00000E+000	10	...........	1505.12
	4065	162.64	6.43131E-001	-2.57832E-005	0.00000E+000	6.42994E-001	0.00000E+000	10	...........	1505.12
	4069	162.8	6.35118E-001	-2.78441E-005	0.00000E+000	6.34995E-001	0.00000E+000	10	...........	1505.40
	4073	162.96	6.27120E-001	-3.02073E-005	0.00000E+000	6.26996E-001	0.00000E+000	10	...........	1505.40
	4077	163.12	6.19125E-001	-3.24284E-005	0.00000E+000	6.18996E-001	0.00000E+000	10	...........	1505.40
	4081	163.28	6.11132E-001	-3.50682E-005	0.00000E+000	6.10997E-001	0.00000E+000	10	...........	1505.40
	4085	163.44	6.03140E-001	-3.75034E-005	0.00000E+000	6.02998E-001	0.00000E+000	10	...........	1505.40
	4089	163.6	5.95126E-001	-3.99891E-005	0.00000E+000	5.94998E-001	0.00000E+000	10	...........	1505.40
	4093	163.76	5.87110E-001	-4.25898E-005	0.00000E+000	5.86999E-001	0.00000E+000	10	...........	1505.21
	4097	163.92	5.79129E-001	-4.50340E-005	0.00000E+000	5.79000E-001	0.00000E+000	10	...........	1505.21
	4101	164.08	5.71131E-001	-4.73753E-005	0.00000E+000	5.71000E-001	0.00000E+000	10	...........	1505.21
	4105	164.24	5.63119E-001	-4.96371E-005	0.00000E+000	5.63001E-001	0.00000E+000	10	...........	1505.21
	4109	164.4	5.55120E-001	-5.14948E-005	0.00000E+000	5.55001E-001	0.00000E+000	10	...........	1505.21
	4113	164.56	5.47114E-001	-5.27769E-005	0.00000E+000	5.47002E-001	0.00000E+000	10	...........	1505.21
	4117	164.72	5.39128E-001	-5.38326E-005	0.00000E+000	5.39003E-001	0.00000E+000	10	...........	1505.26
	4121	164.88	5.31114E-001	-5.42160E-005	0.00000E+000	5.31003E-001	0.00000E+000	10	...........	1505.49
	4125	165.04	5.23120E-001	-5.39198E-005	0.00000E+000	5.23004E-001	0.00000E+000	10	...........	1505.49
	4129	165.2	5.15141E-001	-5.28927E-005	0.00000E+000	5.15005E-001	0.00000E+000	10	...........	1505.49
	4133	165.36	5.07116E-001	-5.11158E-005	0.00000E+000	5.07005E-001	0.00000E+000	10	...........	1505.49
	4137	165.52	4.99104E-001	-4.88462E-005	0.00000E+000	4.99006E-001	0.00000E+000	10	...........	1505.49
	4141	165.68	4.91121E-001	-4.62248E-005	0.00000E+000	4.91006E-001	0.00000E+000	10	...........	1505.49
	4145	165.84	4.83097E-001	-4.35167E-005	0.00000E+000	4.83007E-001	0.00000E+000	10	...........	1505.12
	4149	166	4.75118E-001	-4.03896E-005	0.00000E+000	4.75008E-001	0.00000E+000	10	...........	1505.12
	4153	166.16	4.67121E-001	-3.72413E-005	0.00000E+000	4.67008E-001	0.00000E+000	10	...........	1505.12
	4157	166.32	4.59112E-001	-3.40873E-005	0.00000E+000	4.59009E-001	0.00000E+000	10	...........	1505.12
	4161	166.48	4.51115E-001	-3.12465E-005	0.00000E+000	4.51010E-001	0.00000E+000	10	...........	1505.12
	4165	166.64	4.43116E-001	-2.86387E-005	0.00000E+000	4.43010E-001	0.00000E+000	10	...........	1505.12
	4169	166.8	4.35127E-001	-2.63232E-005	0.00000E+000	4.35011E-001	0.00000E+000	10	...........	1505.40
	4173	166.96	4.27096E-001	-2.41330E-005	0.00000E+000	4.27011E-001	0.00000E+000	10	...........	1505.40
	4177	167.12	4.19102E-001	-2.21399E-005	0.00000E+000	4.19012E-001	0.00000E+000	10	...........	1505.40
	4181	167.28	4.11112E-001	-2.04302E-005	0.00000E+000	4.11013E-001	0.00000E+000	10	...........	1505.40
	4185	167.44	4.03082E-001	-1.87755E-005	0.00000E+000	4.03013E-001	0.00000E+000	10	...........	1505.40
	4189	167.6	3.95078E-001	-1.72807E-005	0.00000E+000	3.95014E-001	0.00000E+000	10	...........	1505.40
	4193	167.76	3.87085E-001	-1.60141E-005	0.00000E+000	3.87015E-001	0.00000E+000	10	...........	1505.12
	4197	167.92	3.79085E-001	-1.46663E-005	0.00000E+000	3.79015E-001	0.00000E+000	10	...........	1505.12
	4201	168.08	3.71073E-001	-1.36782E-005	0.00000E+000	3.71016E-001	0.00000E+000	10	...........	1505.12
	4205	168.24	3.63095E-001	-1.27088E-005	0.00000E+000	3.63016E-001	0.00000E+000	10	...........	1505.12
	4209	168.4	3.55087E-001	-1.17330E-005	0.00000E+000	3.55017E-001	0.00000E+000	10	...........	1505.12
	4213	168.56	3.47098E-001	-1.09410E-005	0.00000E+000	3.47018E-001	0.00000E+000	10	...........	1505.12
	4217	168.72	3.39103E-001	-1.01410E-005	0.00000E+000	3.39018E-001	0.00000E+000	10	...........	1505.16
	4221	168.88	3.31080E-001	-9.49991E-006	0.00000E+000	3.31019E-001	0.00000E+000	10	...........	1505.30
	4225	169.04	3.23090E-001	-8.87929E-006	0.00000E+000	3.23020E-001	0.00000E+000	10	...........	1505.30
	4229	169.2	3.15097E-001	-8.29493E-006	0.00000E+000	3.15020E-001	0.00000E+000	10	...........	1505.30
	4233	169.36	3.07114E-001	-7.85038E-006	0.00000E+000	3.07021E-001	0.00000E+000	10	...........	1505.30
	4237	169.52	2.99079E-001	-7.29618E-006	0.00000E+000	2.99021E-001	0.00000E+000	10	...........	1505.30
	4241	169.68	2.91081E-001	-6.94293E-006	0.00000E+000	2.91022E-001	0.00000E+000	10	...........	1505.30
	4245	169.84	2.83122E-001	-6.59162E-006	0.00000E+000	2.83023E-001	0.00000E+000	10	...........	1505.12
	4249	170	2.75084E-001	-6.31382E-006	0.00000E+000	2.75023E-001	0.00000E+000	10	...........	1505.12
	4253	170.16	2.67070E-001	-6.02825E-006	0.00000E+000	2.67024E-001	0.00000E+000	10	...........	1505.12
	4257	170.32	2.59045E-001	-5.95696E-006	0.00000E+000	2.58974E-001	0.00000E+000	10	...........	1505.12
	4261	170.48	2.51023E-001	-5.79548E-006	0.00000E+000	2.50975E-001	0.00000E+000	10	...........	1505.12
	4265	170.64	2.43038E-001	-5.53895E-006	0.00000E+000	2.42976E-001	0.00000E+000	10	...........	1505.12
	4269	170.8	2.35014E-001	-5.48266E-006	0.00000E+000	2.34976E-001	0.00000E+000	10	...........	1505.40
	4273	170.96	2.27017E-001	-5.44278E-006	0.00000E+000	2.26977E-001	0.00000E+000	10	...........	1505.40
	4277	171.12	2.19037E-001	-5.30187E-006	0.00000E+000	2.18978E-001	0.00000E+000	10	...........	1505.40
	4281	171.28	2.11051E-001	-5.35120E-006	0.00000E+000	2.10978E-001	0.00000E+000	10	...........	1505.40
	4285	171.44	2.03019E-001	-5.32174E-006	0.00000E+000	2.02979E-001	0.00000E+000	10	...........	1505.40
	4289	171.6	1.95022E-001	-5.37649E-006	0.00000E+000	1.94980E-001	0.00000E+000	10	...........	1505.40
	4293	171.76	1.87008E-001	-5.55493E-006	0.00000E+000	1.86980E-001	0.00000E+000	10	...........	1505.12
	4297	171.92	1.79040E-001	-5.36843E-006	0.00000E+000	1.78981E-001	0.00000E+000	10	...........	1505.12
	4301	172.08	1.71029E-001	-5.41415E-006	0.00000E+000	1.70981E-001	0.00000E+000	10	...........	1505.12
	4305	172.24	1.63017E-001	-5.63275E-006	0.00000E+000	1.62982E-001	0.00000E+000	10	...........	1505.12
	4309	172.4	1.55020E-001	-5.69278E-006	0.00000E+000	1.54983E-001	0.00000E+000	10	...........	1505.12
	4313	172.56	1.47025E-001	-6.04979E-006	0.00000E+000	1.46983E-001	0.00000E+000	10	...........	1505.12
	4317	172.72	1.38998E-001	-6.38011E-006	0.00000E+000	1.38984E-001	0.00000E+000	10	...........	1505.19
	4321	172.88	1.31009E-001	-6.85774E-006	0.00000E+000	1.30985E-001	0.00000E+000	10	...........	1505.40
	4325	173.04	1.23006E-001	-7.43403E-006	0.00000E+000	1.22985E-001	0.00000E+000	10	...........	1505.40
	4329	173.2	1.15032E-001	-7.85677E-006	0.00000E+000	1.14986E-001	0.00000E+000	10	...........	1505.40
	4333	173.36	1.07015E-001	-8.66806E-006	0.00000E+000	1.06986E-001	0.00000E+000	10	...........	1505.40
	4337	173.52	9.90122E-002	-9.85025E-006	0.00000E+000	9.89870E-002	0.00000E+000	10	...........	1505.40
	4341	173.68	9.10161E-002	-1.09648E-005	0.00000E+000	9.09877E-002	0.00000E+000	10	...........	1505.40
	4345	173.84	8.30244E-002	-1.22199E-005	0.00000E+000	8.29883E-002	0.00000E+000	10	...........	1505.12
	4349	174	7.50069E-002	-1.36684E-005	0.00000E+000	7.49889E-002	0.00000E+000	10	...........	1505.12
	4353	174.16	6.70235E-002	-1.51213E-005	0.00000E+000	6.69895E-002	0.00000E+000	10	...........	1505.12
	4357	174.32	5.90145E-002	-1.68253E-005	0.00000E+000	5.89902E-002	0.00000E+000	10	...........	1505.12
	4361	174.48	5.10275E-002	-1.85939E-005	0.00000E+000	5.09908E-002	0.00000E+000	10	...........	1505.12
	4365	174.64	4.30128E-002	-2.04285E-005	0.00000E+000	4.29914E-002	0.00000E+000	10	...........	1505.12
	4369	174.8	3.50139E-002	-2.31862E-005	0.00000E+000	3.49920E-002	0.00000E+000	10	...........	1505.40
	4373	174.96	2.70322E-002	-2.56794E-005	0.00000E+000	2.69926E-002	0.00000E+000	10	...........	1505.40
	4377	175.12	1.90273E-002	-2.94322E-005	0.00000E+000	1.89933E-002	0.00000E+000	10	...........	1505.40
	4381	175.28	1.10032E-002	-3.28199E-005	0.00000E+000	1.09939E-002	0.00000E+000	10	...........	1505.40
	4385	175.44	3.02965E-003	-3.58395E-005	0.00000E+000	2.99454E-003	0.00000E+000	10	...........	1505.40
	4389	175.6	-4.97091E-003	-3.85727E-005	0.00000E+000	-5.00488E-003	0.00000E+000	10	...........	1505.40
	4393	175.76	-1.29634E-002	-3.98005E-005	0.00000E+000	-1.30042E-002	0.00000E+000	10	...........	1505.12
	4397	175.92	-2.09851E-002	-3.99157E-005	0.00000E+000	-2.10036E-002	0.00000E+000	10	...........	1505.12
	4401	176.08	-2.89932E-002	-4.01075E-005	0.00000E+000	-2.90030E-002	0.00000E+000	10	...........	1505.12
	4405	176.24	-3.69920E-002	-3.96721E-005	0.00000E+000	-3.70023E-002	0.00000E+000	10	...........	1505.12
	4409	176.4	-4.49621E-002	-3.91434E-005	0.00000E+000	-4.50017E-002	0.00000E+000	10	...........	1505.12
	4413	176.56	-5.29986E-002	-4.03504E-005	0.00000E+000	-5.30011E-002	0.00000E+000	10	...........	1505.12
	4417	176.72	-6.09945E-002	-4.13106E-005	0.00000E+000	-6.10005E-002	0.00000E+000	10	...........	1505.20
	4421	176.88	-6.89742E-002	-4.27428E-005	0.00000E+000	-6.89998E-002	0.00000E+000	10	...........	1505.40
	4425	177.04	-7.69724E-002	-4.51671E-005	0.00000E+000	-7.69992E-002	0.00000E+000	10	...........	1505.40
	4429	177.2	-8.49992E-002	-4.76688E-005	0.00000E+000	-8.49986E-002	0.00000E+000	10	...........	1505.40
	4433	177.36	-9.29771E-002	-5.07649E-005	0.00000E+000	-9.29980E-002	0.00000E+000	10	...........	1505.40
	4437	177.52	-1.00951E-001	-5.39965E-005	0.00000E+000	-1.00997E-001	0.00000E+000	10	...........	1505.40
	4441	177.68	-1.08969E-001	-5.62655E-005	0.00000E+000	-1.08997E-001	0.00000E+000	10	...........	1505.40
	4445	177.84	-1.16986E-001	-5.85219E-005	0.00000E+000	-1.16996E-001	0.00000E+000	10	...........	1505.12
	4449	178	-1.24964E-001	-5.95603E-005	0.00000E+000	-1.24995E-001	0.00000E+000	10	...........	1505.12
	4453	178.16	-1.33003E-001	-6.06713E-005	0.00000E+000	-1.32995E-001	0.00000E+000	10	...........	1505.12
	4457	178.32	-1.40972E-001	-6.15395E-005	0.00000E+000	-1.40994E-001	0.00000E+000	10	...........	1505.12
	4461	178.48	-1.48970E-001	-6.29088E-005	0.00000E+000	-1.48994E-001	0.00000E+000	10	...........	1505.12
	4465	178.64	-1.56974E-001	-6.54848E-005	0.00000E+000	-1.56993E-001	0.00000E+000	10	...........	1505.12
	4469	178.8	-1.64975E-001	-6.84782E-005	0.00000E+000	-1.64992E-001	0.00000E+000	10	...........	1505.40
	4473	178.96	-1.72974E-001	-7.49408E-005	0.00000E+000	-1.72992E-001	0.00000E+000	10	...........	1505.40
	4477	179.12	-1.80991E-001	-8.42763E-005	0.00000E+000	-1.80991E-001	0.00000E+000	10	...........	1505.40
	4481	179.28	-1.88976E-001	-9.81124E-005	0.00000E+000	-1.88990E-001	0.00000E+000	10	...........	1505.40
	4485	179.44	-1.96973E-001	-1.20359E-004	0.00000E+000	-1.96990E-001	0.00000E+000	10	...........	1505.40
	4489	179.6	-2.04968E-001	-1.54294E-004	0.00000E+000	-2.04989E-001	0.00000E+000	10	...........	1505.40
	4493	179.76	-2.12992E-001	-2.05396E-004	0.00000E+000	-2.12989E-001	0.00000E+000	10	...........	1505.03
	4497	179.92	-2.20981E-001	-2.73851E-004	0.00000E+000	-2.20988E-001	0.00000E+000	10	...........	1505.03
	4500	180.04	-2.26969E-001	-3.38373E-004	0.00000E+000	-2.26987E-001	0.00000E+000	10	...........	1505.03