File: data/Jesus_data/electroless_Pt_28%_NH4OH/Break_in.DTA
EXPLAIN
TAG	CV
TITLE	LABEL	Cyclic Voltammetry	Test Identifier
DATE	LABEL	7/17/2023	Date
TIME	LABEL	22:03:30	Time
NOTES	NOTES	1	Notes...

PSTAT	PSTAT	IFC1010-20234	Potentiostat
VINIT	POTEN	-2.27E-01	F	Initial E (V)
VLIMIT1	POTEN	1.27E+00	F	Scan Limit 1 (V)
VLIMIT2	POTEN	-2.27E-01	F	Scan Limit 2 (V)
VFINAL	POTEN	-1.27E-01	F	Final E (V)
SCANRATE	QUANT	5.00E+01	Scan Rate (mV/s)
STEPSIZE	QUANT	2.00E+00	Step Size (mV)
CYCLES	IQUANT	30	Cycles (#)
IMODE	SELECTOR	1	I/E Range Mode
IRANGE	QUANT	2.00E+00	Max Current (mA)
AREA	QUANT	1.00E+00	Sample Area (cm^2)
EQDELAY	QUANT	5.00E+00	Equil. Time (s)
IRCOMP	SELECTOR	2	IRComp
PFCOR	QUANT	2.49E+01	PF Corr. (ohm)
SAMPLINGMODE	SELECTOR	2	Sampling Mode
EOC	QUANT	0	Open Circuit (V)
ELECTRODETYPE	SELECTOR	0	Electrode Type
STRIPPING	TOGGLE	F	Used for Stripping
POLARITY	TOGGLE	F	Signal Polarity
SEQUENCER	TOGGLE	TRUE	Run as Sequence
PSTATMODEL	IQUANT	64	Pstat Model
PSTATSECTION	LABEL	IFC1010-20234	Pstat Section
PSTATSERIALNO	LABEL	20234	Pstat Serial Number
CTRLMODE	IQUANT	1	Control Mode
ELECTROMETER	IQUANT	0	RE=0 or CS=1
IESTAB	IQUANT	2	I/E Stability
CASPEED	IQUANT	4	Control Amp Speed
CONVENTION	IQUANT	1	Current Convention
ICHRANGE	IQUANT	2	Ich Range
ICHRANGEMODE	TOGGLE	F	Ich Auto Range
ICHOFFSETENABLE	TOGGLE	F	Ich Offset Enable
ICHOFFSET	QUANT	0	Ich Offset (V)
ICHFILTER	IQUANT	3	Ich Filter
VCHRANGE	IQUANT	2	Vch Range
VCHRANGEMODE	TOGGLE	F	Vch Auto Range
VCHOFFSETENABLE	TOGGLE	F	Vch Offset Enable
VCHOFFSET	QUANT	0	Vch Offset (V)
VCHFILTER	IQUANT	1	Vch Filter
IERANGELOWERLIMIT	IQUANT	4	I/E Range Lower Limit
IERANGEMODE	TOGGLE	F	I/E AutoRange
IERANGE	IQUANT	10	I/E Range
ACHSELECT	IQUANT	0	Ach Select
ACHRANGE	IQUANT	2	Ach Range
ACHOFFSETENABLE	TOGGLE	F	Ach Offset Enable
ACHOFFSET	QUANT	0	Ach Offset (V)
ACHFILTER	IQUANT	1	Ach Filter
SENSECABLEID	IQUANT	14	Sense Cable ID
PWRCABLEID	IQUANT	14	Power Cable ID
DCCALDATE	LABEL	7/15/2022	DC Calibration Date
ACCALDATE	LABEL	07-08-20	AC Calibration Date
FRAMEWORKVERSION	LABEL	7.8.2	Framework Version
INSTRUMENTVERSION	LABEL	4.4	Instrument Version
CURVE1	TABLE
	Pt	T	Vf	Im		Vu	Sig	Ach	IERange	Over	Temp
	#	s	V vs. Ref.	A		V	V	V	#	bits	deg C
	0	0.04	-2.27E-01	-2.07E-04	-2.07E-01	0.00E+00	-2.27E-01	0.00E+00	10	...........	1505.86
	3	0.16	-2.21E-01	-1.52E-05	-1.52E-02	0.00E+00	-2.21E-01	0.00E+00	10	...........	1505.86
	6	0.28	-2.15E-01	1.26E-04	1.26E-01	0.00E+00	-2.15E-01	0.00E+00	10	...........	1505.86
	9	0.4	-2.09E-01	2.35E-04	2.35E-01	0.00E+00	-2.09E-01	0.00E+00	10	...........	1505.86
	12	0.52	-2.03E-01	3.21E-04	3.21E-01	0.00E+00	-2.03E-01	0.00E+00	10	...........	1505.86
	15	0.64	-1.97E-01	3.87E-04	3.87E-01	0.00E+00	-1.97E-01	0.00E+00	10	...........	1505.86
	18	0.76	-1.91E-01	4.41E-04	4.41E-01	0.00E+00	-1.91E-01	0.00E+00	10	...........	1505.86
	21	0.88	-1.85E-01	4.91E-04	4.91E-01	0.00E+00	-1.85E-01	0.00E+00	10	...........	1505.86
	24	1	-1.79E-01	5.43E-04	5.43E-01	0.00E+00	-1.79E-01	0.00E+00	10	...........	1505.86
	27	1.12	-1.73E-01	6.03E-04	6.03E-01	0.00E+00	-1.73E-01	0.00E+00	10	...........	1505.86
	30	1.24	-1.67E-01	6.70E-04	6.70E-01	0.00E+00	-1.67E-01	0.00E+00	10	...........	1505.86
	33	1.36	-1.61E-01	7.44E-04	7.44E-01	0.00E+00	-1.61E-01	0.00E+00	10	...........	1505.86
	36	1.48	-1.55E-01	8.16E-04	8.16E-01	0.00E+00	-1.55E-01	0.00E+00	10	...........	1505.86
	39	1.6	-1.49E-01	8.74E-04	8.74E-01	0.00E+00	-1.49E-01	0.00E+00	10	...........	1505.86
	42	1.72	-1.43E-01	8.88E-04	8.88E-01	0.00E+00	-1.43E-01	0.00E+00	10	...........	1505.3
	45	1.84	-1.37E-01	7.97E-04	7.97E-01	0.00E+00	-1.37E-01	0.00E+00	10	...........	1505.3
	48	1.96	-1.31E-01	5.32E-04	5.32E-01	0.00E+00	-1.31E-01	0.00E+00	10	...........	1505.3
	51	2.08	-1.25E-01	3.26E-04	3.26E-01	0.00E+00	-1.25E-01	0.00E+00	10	...........	1505.3
	54	2.2	-1.19E-01	2.51E-04	2.51E-01	0.00E+00	-1.19E-01	0.00E+00	10	...........	1505.3
	57	2.32	-1.13E-01	2.22E-04	2.22E-01	0.00E+00	-1.13E-01	0.00E+00	10	...........	1505.3
	60	2.44	-1.07E-01	2.09E-04	2.09E-01	0.00E+00	-1.07E-01	0.00E+00	10	...........	1505.3
	63	2.56	-1.01E-01	2.00E-04	2.00E-01	0.00E+00	-1.01E-01	0.00E+00	10	...........	1505.3
	66	2.68	-9.50E-02	1.94E-04	1.94E-01	0.00E+00	-9.50E-02	0.00E+00	10	...........	1505.21
	69	2.8	-8.90E-02	1.87E-04	1.87E-01	0.00E+00	-8.90E-02	0.00E+00	10	...........	1505.21
	72	2.92	-8.30E-02	1.82E-04	1.82E-01	0.00E+00	-8.30E-02	0.00E+00	10	...........	1505.21
	75	3.04	-7.70E-02	1.77E-04	1.77E-01	0.00E+00	-7.70E-02	0.00E+00	10	...........	1505.21
	78	3.16	-7.10E-02	1.72E-04	1.72E-01	0.00E+00	-7.10E-02	0.00E+00	10	...........	1505.21
	81	3.28	-6.50E-02	1.66E-04	1.66E-01	0.00E+00	-6.50E-02	0.00E+00	10	...........	1505.21
	84	3.4	-5.90E-02	1.60E-04	1.60E-01	0.00E+00	-5.90E-02	0.00E+00	10	...........	1505.21
	87	3.52	-5.30E-02	1.54E-04	1.54E-01	0.00E+00	-5.30E-02	0.00E+00	10	...........	1505.21
	90	3.64	-4.70E-02	1.50E-04	1.50E-01	0.00E+00	-4.70E-02	0.00E+00	10	...........	1505.25
	93	3.76	-4.10E-02	1.46E-04	1.46E-01	0.00E+00	-4.10E-02	0.00E+00	10	...........	1505.58
	96	3.88	-3.50E-02	1.44E-04	1.44E-01	0.00E+00	-3.50E-02	0.00E+00	10	...........	1505.58
	99	4	-2.90E-02	1.38E-04	1.38E-01	0.00E+00	-2.90E-02	0.00E+00	10	...........	1505.58
	102	4.12	-2.30E-02	1.38E-04	1.38E-01	0.00E+00	-2.30E-02	0.00E+00	10	...........	1505.58
	105	4.24	-1.70E-02	1.38E-04	1.38E-01	0.00E+00	-1.70E-02	0.00E+00	10	...........	1505.58
	108	4.36	-1.10E-02	1.37E-04	1.37E-01	0.00E+00	-1.10E-02	0.00E+00	10	...........	1505.58
	111	4.48	-4.98E-03	1.35E-04	1.35E-01	0.00E+00	-5.00E-03	0.00E+00	10	...........	1505.58
	114	4.6	1.03E-03	1.32E-04	1.32E-01	0.00E+00	9.95E-04	0.00E+00	10	...........	1505.58
	117	4.72	6.99E-03	1.29E-04	1.29E-01	0.00E+00	6.99E-03	0.00E+00	10	...........	1505.12
	120	4.84	1.30E-02	1.27E-04	1.27E-01	0.00E+00	1.30E-02	0.00E+00	10	...........	1505.12
	123	4.96	1.90E-02	1.26E-04	1.26E-01	0.00E+00	1.90E-02	0.00E+00	10	...........	1505.12
	126	5.08	2.50E-02	1.25E-04	1.25E-01	0.00E+00	2.50E-02	0.00E+00	10	...........	1505.12
	129	5.2	3.10E-02	1.23E-04	1.23E-01	0.00E+00	3.10E-02	0.00E+00	10	...........	1505.12
	132	5.32	3.70E-02	1.21E-04	1.21E-01	0.00E+00	3.70E-02	0.00E+00	10	...........	1505.12
	135	5.44	4.30E-02	1.18E-04	1.18E-01	0.00E+00	4.30E-02	0.00E+00	10	...........	1505.12
	138	5.56	4.90E-02	1.14E-04	1.14E-01	0.00E+00	4.90E-02	0.00E+00	10	...........	1505.12
	141	5.68	5.50E-02	1.07E-04	1.07E-01	0.00E+00	5.50E-02	0.00E+00	10	...........	1505.3
	144	5.8	6.10E-02	9.84E-05	9.84E-02	0.00E+00	6.10E-02	0.00E+00	10	...........	1505.3
	147	5.92	6.70E-02	9.03E-05	9.03E-02	0.00E+00	6.70E-02	0.00E+00	10	...........	1505.3
	150	6.04	7.30E-02	8.29E-05	8.29E-02	0.00E+00	7.30E-02	0.00E+00	10	...........	1505.3
	153	6.16	7.90E-02	7.58E-05	7.58E-02	0.00E+00	7.90E-02	0.00E+00	10	...........	1505.3
	156	6.28	8.50E-02	6.93E-05	6.93E-02	0.00E+00	8.50E-02	0.00E+00	10	...........	1505.3
	159	6.4	9.10E-02	6.37E-05	6.37E-02	0.00E+00	9.10E-02	0.00E+00	10	...........	1505.3
	162	6.52	9.70E-02	5.92E-05	5.92E-02	0.00E+00	9.70E-02	0.00E+00	10	...........	1505.3
	165	6.64	1.03E-01	5.55E-05	5.55E-02	0.00E+00	1.03E-01	0.00E+00	10	...........	1505.3
	168	6.76	1.09E-01	5.20E-05	5.20E-02	0.00E+00	1.09E-01	0.00E+00	10	...........	1505.3
	171	6.88	1.15E-01	4.84E-05	4.84E-02	0.00E+00	1.15E-01	0.00E+00	10	...........	1505.3
	174	7	1.21E-01	4.57E-05	4.57E-02	0.00E+00	1.21E-01	0.00E+00	10	...........	1505.3
	177	7.12	1.27E-01	4.30E-05	4.30E-02	0.00E+00	1.27E-01	0.00E+00	10	...........	1505.3
	180	7.24	1.33E-01	4.05E-05	4.05E-02	0.00E+00	1.33E-01	0.00E+00	10	...........	1505.3
	183	7.36	1.39E-01	3.80E-05	3.80E-02	0.00E+00	1.39E-01	0.00E+00	10	...........	1505.3
	186	7.48	1.45E-01	3.55E-05	3.55E-02	0.00E+00	1.45E-01	0.00E+00	10	...........	1505.3
	189	7.6	1.51E-01	3.33E-05	3.33E-02	0.00E+00	1.51E-01	0.00E+00	10	...........	1505.3
	192	7.72	1.57E-01	3.13E-05	3.13E-02	0.00E+00	1.57E-01	0.00E+00	10	...........	1505.21
	195	7.84	1.63E-01	2.97E-05	2.97E-02	0.00E+00	1.63E-01	0.00E+00	10	...........	1505.21
	198	7.96	1.69E-01	2.82E-05	2.82E-02	0.00E+00	1.69E-01	0.00E+00	10	...........	1505.21
	201	8.08	1.75E-01	2.68E-05	2.68E-02	0.00E+00	1.75E-01	0.00E+00	10	...........	1505.21
	204	8.2	1.81E-01	2.54E-05	2.54E-02	0.00E+00	1.81E-01	0.00E+00	10	...........	1505.21
	207	8.32	1.87E-01	2.44E-05	2.44E-02	0.00E+00	1.87E-01	0.00E+00	10	...........	1505.21
	210	8.44	1.93E-01	2.35E-05	2.35E-02	0.00E+00	1.93E-01	0.00E+00	10	...........	1505.21
	213	8.56	1.99E-01	2.26E-05	2.26E-02	0.00E+00	1.99E-01	0.00E+00	10	...........	1505.21
	216	8.68	2.05E-01	2.19E-05	2.19E-02	0.00E+00	2.05E-01	0.00E+00	10	...........	1505.4
	219	8.8	2.11E-01	2.12E-05	2.12E-02	0.00E+00	2.11E-01	0.00E+00	10	...........	1505.4
	222	8.92	2.17E-01	2.06E-05	2.06E-02	0.00E+00	2.17E-01	0.00E+00	10	...........	1505.4
	225	9.04	2.23E-01	2.01E-05	2.01E-02	0.00E+00	2.23E-01	0.00E+00	10	...........	1505.4
	228	9.16	2.29E-01	1.97E-05	1.97E-02	0.00E+00	2.29E-01	0.00E+00	10	...........	1505.4
	231	9.28	2.35E-01	1.93E-05	1.93E-02	0.00E+00	2.35E-01	0.00E+00	10	...........	1505.4
	234	9.4	2.41E-01	1.90E-05	1.90E-02	0.00E+00	2.41E-01	0.00E+00	10	...........	1505.4
	237	9.52	2.47E-01	1.86E-05	1.86E-02	0.00E+00	2.47E-01	0.00E+00	10	...........	1505.4
	240	9.64	2.53E-01	1.83E-05	1.83E-02	0.00E+00	2.53E-01	0.00E+00	10	...........	1505.37
	243	9.76	2.59E-01	1.80E-05	1.80E-02	0.00E+00	2.59E-01	0.00E+00	10	...........	1505.21
	246	9.88	2.65E-01	1.78E-05	1.78E-02	0.00E+00	2.65E-01	0.00E+00	10	...........	1505.21
	249	10	2.71E-01	1.75E-05	1.75E-02	0.00E+00	2.71E-01	0.00E+00	10	...........	1505.21
	252	10.12	2.77E-01	1.74E-05	1.74E-02	0.00E+00	2.77E-01	0.00E+00	10	...........	1505.21
	255	10.24	2.83E-01	1.71E-05	1.71E-02	0.00E+00	2.83E-01	0.00E+00	10	...........	1505.21
	258	10.36	2.89E-01	1.68E-05	1.68E-02	0.00E+00	2.89E-01	0.00E+00	10	...........	1505.21
	261	10.48	2.95E-01	1.65E-05	1.65E-02	0.00E+00	2.95E-01	0.00E+00	10	...........	1505.21
	264	10.6	3.01E-01	1.65E-05	1.65E-02	0.00E+00	3.01E-01	0.00E+00	10	...........	1505.21
	267	10.72	3.07E-01	1.64E-05	1.64E-02	0.00E+00	3.07E-01	0.00E+00	10	...........	1505.12
	270	10.84	3.13E-01	1.61E-05	1.61E-02	0.00E+00	3.13E-01	0.00E+00	10	...........	1505.12
	273	10.96	3.19E-01	1.59E-05	1.59E-02	0.00E+00	3.19E-01	0.00E+00	10	...........	1505.12
	276	11.08	3.25E-01	1.57E-05	1.57E-02	0.00E+00	3.25E-01	0.00E+00	10	...........	1505.12
	279	11.2	3.31E-01	1.57E-05	1.57E-02	0.00E+00	3.31E-01	0.00E+00	10	...........	1505.12
	282	11.32	3.37E-01	1.55E-05	1.55E-02	0.00E+00	3.37E-01	0.00E+00	10	...........	1505.12
	285	11.44	3.43E-01	1.54E-05	1.54E-02	0.00E+00	3.43E-01	0.00E+00	10	...........	1505.12
	288	11.56	3.49E-01	1.51E-05	1.51E-02	0.00E+00	3.49E-01	0.00E+00	10	...........	1505.12
	291	11.68	3.55E-01	1.50E-05	1.50E-02	0.00E+00	3.55E-01	0.00E+00	10	...........	1505.12
	294	11.8	3.61E-01	1.49E-05	1.49E-02	0.00E+00	3.61E-01	0.00E+00	10	...........	1505.12
	297	11.92	3.67E-01	1.49E-05	1.49E-02	0.00E+00	3.67E-01	0.00E+00	10	...........	1505.12
	300	12.04	3.73E-01	1.47E-05	1.47E-02	0.00E+00	3.73E-01	0.00E+00	10	...........	1505.12
	303	12.16	3.79E-01	1.46E-05	1.46E-02	0.00E+00	3.79E-01	0.00E+00	10	...........	1505.12
	306	12.28	3.85E-01	1.45E-05	1.45E-02	0.00E+00	3.85E-01	0.00E+00	10	...........	1505.12
	309	12.4	3.91E-01	1.43E-05	1.43E-02	0.00E+00	3.91E-01	0.00E+00	10	...........	1505.12
	312	12.52	3.97E-01	1.43E-05	1.43E-02	0.00E+00	3.97E-01	0.00E+00	10	...........	1505.12
	315	12.64	4.03E-01	1.42E-05	1.42E-02	0.00E+00	4.03E-01	0.00E+00	10	...........	1505.12
	318	12.76	4.09E-01	1.42E-05	1.42E-02	0.00E+00	4.09E-01	0.00E+00	10	...........	1505.12
	321	12.88	4.15E-01	1.42E-05	1.42E-02	0.00E+00	4.15E-01	0.00E+00	10	...........	1505.12
	324	13	4.21E-01	1.42E-05	1.42E-02	0.00E+00	4.21E-01	0.00E+00	10	...........	1505.12
	327	13.12	4.27E-01	1.42E-05	1.42E-02	0.00E+00	4.27E-01	0.00E+00	10	...........	1505.12
	330	13.24	4.33E-01	1.41E-05	1.41E-02	0.00E+00	4.33E-01	0.00E+00	10	...........	1505.12
	333	13.36	4.39E-01	1.41E-05	1.41E-02	0.00E+00	4.39E-01	0.00E+00	10	...........	1505.12
	336	13.48	4.45E-01	1.41E-05	1.41E-02	0.00E+00	4.45E-01	0.00E+00	10	...........	1505.12
	339	13.6	4.51E-01	1.43E-05	1.43E-02	0.00E+00	4.51E-01	0.00E+00	10	...........	1505.12
	342	13.72	4.57E-01	1.43E-05	1.43E-02	0.00E+00	4.57E-01	0.00E+00	10	...........	1505.21
	345	13.84	4.63E-01	1.42E-05	1.42E-02	0.00E+00	4.63E-01	0.00E+00	10	...........	1505.21
	348	13.96	4.69E-01	1.43E-05	1.43E-02	0.00E+00	4.69E-01	0.00E+00	10	...........	1505.21
	351	14.08	4.75E-01	1.44E-05	1.44E-02	0.00E+00	4.75E-01	0.00E+00	10	...........	1505.21
	354	14.2	4.81E-01	1.45E-05	1.45E-02	0.00E+00	4.81E-01	0.00E+00	10	...........	1505.21
	357	14.32	4.87E-01	1.48E-05	1.48E-02	0.00E+00	4.87E-01	0.00E+00	10	...........	1505.21
	360	14.44	4.93E-01	1.48E-05	1.48E-02	0.00E+00	4.93E-01	0.00E+00	10	...........	1505.21
	363	14.56	4.99E-01	1.50E-05	1.50E-02	0.00E+00	4.99E-01	0.00E+00	10	...........	1505.21
	366	14.68	5.05E-01	1.51E-05	1.51E-02	0.00E+00	5.05E-01	0.00E+00	10	...........	1505.4
	369	14.8	5.11E-01	1.54E-05	1.54E-02	0.00E+00	5.11E-01	0.00E+00	10	...........	1505.4
	372	14.92	5.17E-01	1.58E-05	1.58E-02	0.00E+00	5.17E-01	0.00E+00	10	...........	1505.4
	375	15.04	5.23E-01	1.61E-05	1.61E-02	0.00E+00	5.23E-01	0.00E+00	10	...........	1505.4
	378	15.16	5.29E-01	1.64E-05	1.64E-02	0.00E+00	5.29E-01	0.00E+00	10	...........	1505.4
	381	15.28	5.35E-01	1.67E-05	1.67E-02	0.00E+00	5.35E-01	0.00E+00	10	...........	1505.4
	384	15.4	5.41E-01	1.70E-05	1.70E-02	0.00E+00	5.41E-01	0.00E+00	10	...........	1505.4
	387	15.52	5.47E-01	1.75E-05	1.75E-02	0.00E+00	5.47E-01	0.00E+00	10	...........	1505.4
	390	15.64	5.53E-01	1.79E-05	1.79E-02	0.00E+00	5.53E-01	0.00E+00	10	...........	1505.36
	393	15.76	5.59E-01	1.83E-05	1.83E-02	0.00E+00	5.59E-01	0.00E+00	10	...........	1505.21
	396	15.88	5.65E-01	1.89E-05	1.89E-02	0.00E+00	5.65E-01	0.00E+00	10	...........	1505.21
	399	16	5.71E-01	1.94E-05	1.94E-02	0.00E+00	5.71E-01	0.00E+00	10	...........	1505.21
	402	16.12	5.77E-01	1.99E-05	1.99E-02	0.00E+00	5.77E-01	0.00E+00	10	...........	1505.21
	405	16.24	5.83E-01	2.05E-05	2.05E-02	0.00E+00	5.83E-01	0.00E+00	10	...........	1505.21
	408	16.36	5.89E-01	2.11E-05	2.11E-02	0.00E+00	5.89E-01	0.00E+00	10	...........	1505.21
	411	16.48	5.95E-01	2.18E-05	2.18E-02	0.00E+00	5.95E-01	0.00E+00	10	...........	1505.21
	414	16.6	6.01E-01	2.25E-05	2.25E-02	0.00E+00	6.01E-01	0.00E+00	10	...........	1505.21
	417	16.72	6.07E-01	2.33E-05	2.33E-02	0.00E+00	6.07E-01	0.00E+00	10	...........	1505.49
	420	16.84	6.13E-01	2.41E-05	2.41E-02	0.00E+00	6.13E-01	0.00E+00	10	...........	1505.49
	423	16.96	6.19E-01	2.51E-05	2.51E-02	0.00E+00	6.19E-01	0.00E+00	10	...........	1505.49
	426	17.08	6.25E-01	2.61E-05	2.61E-02	0.00E+00	6.25E-01	0.00E+00	10	...........	1505.49
	429	17.2	6.31E-01	2.71E-05	2.71E-02	0.00E+00	6.31E-01	0.00E+00	10	...........	1505.49
	432	17.32	6.37E-01	2.85E-05	2.85E-02	0.00E+00	6.37E-01	0.00E+00	10	...........	1505.49
	435	17.44	6.43E-01	2.99E-05	2.99E-02	0.00E+00	6.43E-01	0.00E+00	10	...........	1505.49
	438	17.56	6.49E-01	3.16E-05	3.16E-02	0.00E+00	6.49E-01	0.00E+00	10	...........	1505.49
	441	17.68	6.55E-01	3.31E-05	3.31E-02	0.00E+00	6.55E-01	0.00E+00	10	...........	1505.21
	444	17.8	6.61E-01	3.48E-05	3.48E-02	0.00E+00	6.61E-01	0.00E+00	10	...........	1505.21
	447	17.92	6.67E-01	3.68E-05	3.68E-02	0.00E+00	6.67E-01	0.00E+00	10	...........	1505.21
	450	18.04	6.73E-01	3.90E-05	3.90E-02	0.00E+00	6.73E-01	0.00E+00	10	...........	1505.21
	453	18.16	6.79E-01	4.10E-05	4.10E-02	0.00E+00	6.79E-01	0.00E+00	10	...........	1505.21
	456	18.28	6.85E-01	4.30E-05	4.30E-02	0.00E+00	6.85E-01	0.00E+00	10	...........	1505.21
	459	18.4	6.91E-01	4.50E-05	4.50E-02	0.00E+00	6.91E-01	0.00E+00	10	...........	1505.21
	462	18.52	6.97E-01	4.70E-05	4.70E-02	0.00E+00	6.97E-01	0.00E+00	10	...........	1505.21
	465	18.64	7.03E-01	4.90E-05	4.90E-02	0.00E+00	7.03E-01	0.00E+00	10	...........	1505.27
	468	18.76	7.09E-01	5.08E-05	5.08E-02	0.00E+00	7.09E-01	0.00E+00	10	...........	1505.49
	471	18.88	7.15E-01	5.28E-05	5.28E-02	0.00E+00	7.15E-01	0.00E+00	10	...........	1505.49
	474	19	7.21E-01	5.49E-05	5.49E-02	0.00E+00	7.21E-01	0.00E+00	10	...........	1505.49
	477	19.12	7.27E-01	5.70E-05	5.70E-02	0.00E+00	7.27E-01	0.00E+00	10	...........	1505.49
	480	19.24	7.33E-01	5.87E-05	5.87E-02	0.00E+00	7.33E-01	0.00E+00	10	...........	1505.49
	483	19.36	7.39E-01	6.03E-05	6.03E-02	0.00E+00	7.39E-01	0.00E+00	10	...........	1505.49
	486	19.48	7.45E-01	6.19E-05	6.19E-02	0.00E+00	7.45E-01	0.00E+00	10	...........	1505.49
	489	19.6	7.51E-01	6.38E-05	6.38E-02	0.00E+00	7.51E-01	0.00E+00	10	...........	1505.49
	492	19.72	7.57E-01	6.55E-05	6.55E-02	0.00E+00	7.57E-01	0.00E+00	10	...........	1505.21
	495	19.84	7.63E-01	6.70E-05	6.70E-02	0.00E+00	7.63E-01	0.00E+00	10	...........	1505.21
	498	19.96	7.69E-01	6.83E-05	6.83E-02	0.00E+00	7.69E-01	0.00E+00	10	...........	1505.21
	501	20.08	7.75E-01	6.99E-05	6.99E-02	0.00E+00	7.75E-01	0.00E+00	10	...........	1505.21
	504	20.2	7.81E-01	7.12E-05	7.12E-02	0.00E+00	7.81E-01	0.00E+00	10	...........	1505.21
	507	20.32	7.87E-01	7.28E-05	7.28E-02	0.00E+00	7.87E-01	0.00E+00	10	...........	1505.21
	510	20.44	7.93E-01	7.42E-05	7.42E-02	0.00E+00	7.93E-01	0.00E+00	10	...........	1505.21
	513	20.56	7.99E-01	7.56E-05	7.56E-02	0.00E+00	7.99E-01	0.00E+00	10	...........	1505.21
	516	20.68	8.05E-01	7.69E-05	7.69E-02	0.00E+00	8.05E-01	0.00E+00	10	...........	1505.4
	519	20.8	8.11E-01	7.80E-05	7.80E-02	0.00E+00	8.11E-01	0.00E+00	10	...........	1505.4
	522	20.92	8.17E-01	7.94E-05	7.94E-02	0.00E+00	8.17E-01	0.00E+00	10	...........	1505.4
	525	21.04	8.23E-01	8.05E-05	8.05E-02	0.00E+00	8.23E-01	0.00E+00	10	...........	1505.4
	528	21.16	8.29E-01	8.18E-05	8.18E-02	0.00E+00	8.29E-01	0.00E+00	10	...........	1505.4
	531	21.28	8.35E-01	8.30E-05	8.30E-02	0.00E+00	8.35E-01	0.00E+00	10	...........	1505.4
	534	21.4	8.41E-01	8.39E-05	8.39E-02	0.00E+00	8.41E-01	0.00E+00	10	...........	1505.4
	537	21.52	8.47E-01	8.50E-05	8.50E-02	0.00E+00	8.47E-01	0.00E+00	10	...........	1505.4
	540	21.64	8.53E-01	8.59E-05	8.59E-02	0.00E+00	8.53E-01	0.00E+00	10	...........	1505.35
	543	21.76	8.59E-01	8.67E-05	8.67E-02	0.00E+00	8.59E-01	0.00E+00	10	...........	1505.21
	546	21.88	8.65E-01	8.76E-05	8.76E-02	0.00E+00	8.65E-01	0.00E+00	10	...........	1505.21
	549	22	8.71E-01	8.85E-05	8.85E-02	0.00E+00	8.71E-01	0.00E+00	10	...........	1505.21
	552	22.12	8.77E-01	8.90E-05	8.90E-02	0.00E+00	8.77E-01	0.00E+00	10	...........	1505.21
	555	22.24	8.83E-01	8.95E-05	8.95E-02	0.00E+00	8.83E-01	0.00E+00	10	...........	1505.21
	558	22.36	8.89E-01	9.00E-05	9.00E-02	0.00E+00	8.89E-01	0.00E+00	10	...........	1505.21
	561	22.48	8.95E-01	9.03E-05	9.03E-02	0.00E+00	8.95E-01	0.00E+00	10	...........	1505.21
	564	22.6	9.01E-01	9.08E-05	9.08E-02	0.00E+00	9.01E-01	0.00E+00	10	...........	1505.21
	567	22.72	9.07E-01	9.13E-05	9.13E-02	0.00E+00	9.07E-01	0.00E+00	10	...........	1505.49
	570	22.84	9.13E-01	9.18E-05	9.18E-02	0.00E+00	9.13E-01	0.00E+00	10	...........	1505.49
	573	22.96	9.19E-01	9.26E-05	9.26E-02	0.00E+00	9.19E-01	0.00E+00	10	...........	1505.49
	576	23.08	9.25E-01	9.26E-05	9.26E-02	0.00E+00	9.25E-01	0.00E+00	10	...........	1505.49
	579	23.2	9.31E-01	9.30E-05	9.30E-02	0.00E+00	9.31E-01	0.00E+00	10	...........	1505.49
	582	23.32	9.37E-01	9.34E-05	9.34E-02	0.00E+00	9.37E-01	0.00E+00	10	...........	1505.49
	585	23.44	9.43E-01	9.37E-05	9.37E-02	0.00E+00	9.43E-01	0.00E+00	10	...........	1505.49
	588	23.56	9.49E-01	9.40E-05	9.40E-02	0.00E+00	9.49E-01	0.00E+00	10	...........	1505.49
	591	23.68	9.55E-01	9.43E-05	9.43E-02	0.00E+00	9.55E-01	0.00E+00	10	...........	1505.21
	594	23.8	9.61E-01	9.45E-05	9.45E-02	0.00E+00	9.61E-01	0.00E+00	10	...........	1505.21
	597	23.92	9.67E-01	9.49E-05	9.49E-02	0.00E+00	9.67E-01	0.00E+00	10	...........	1505.21
	600	24.04	9.73E-01	9.52E-05	9.52E-02	0.00E+00	9.73E-01	0.00E+00	10	...........	1505.21
	603	24.16	9.79E-01	9.56E-05	9.56E-02	0.00E+00	9.79E-01	0.00E+00	10	...........	1505.21
	606	24.28	9.85E-01	9.59E-05	9.59E-02	0.00E+00	9.85E-01	0.00E+00	10	...........	1505.21
	609	24.4	9.91E-01	9.62E-05	9.62E-02	0.00E+00	9.91E-01	0.00E+00	10	...........	1505.21
	612	24.52	9.97E-01	9.68E-05	9.68E-02	0.00E+00	9.97E-01	0.00E+00	10	...........	1505.21
	615	24.64	1.00E+00	9.72E-05	9.72E-02	0.00E+00	1.00E+00	0.00E+00	10	...........	1505.29
	618	24.76	1.01E+00	9.77E-05	9.77E-02	0.00E+00	1.01E+00	0.00E+00	10	...........	1505.49
	621	24.88	1.02E+00	9.83E-05	9.83E-02	0.00E+00	1.02E+00	0.00E+00	10	...........	1505.49
	624	25	1.02E+00	9.88E-05	9.88E-02	0.00E+00	1.02E+00	0.00E+00	10	...........	1505.49
	627	25.12	1.03E+00	9.93E-05	9.93E-02	0.00E+00	1.03E+00	0.00E+00	10	...........	1505.49
	630	25.24	1.03E+00	9.98E-05	9.98E-02	0.00E+00	1.03E+00	0.00E+00	10	...........	1505.49
	633	25.36	1.04E+00	1.00E-04	1.00E-01	0.00E+00	1.04E+00	0.00E+00	10	...........	1505.49
	636	25.48	1.05E+00	1.00E-04	1.00E-01	0.00E+00	1.05E+00	0.00E+00	10	...........	1505.49
	639	25.6	1.05E+00	1.01E-04	1.01E-01	0.00E+00	1.05E+00	0.00E+00	10	...........	1505.49
	642	25.72	1.06E+00	1.01E-04	1.01E-01	0.00E+00	1.06E+00	0.00E+00	10	...........	1505.21
	645	25.84	1.06E+00	1.02E-04	1.02E-01	0.00E+00	1.06E+00	0.00E+00	10	...........	1505.21
	648	25.96	1.07E+00	1.03E-04	1.03E-01	0.00E+00	1.07E+00	0.00E+00	10	...........	1505.21
	651	26.08	1.08E+00	1.03E-04	1.03E-01	0.00E+00	1.08E+00	0.00E+00	10	...........	1505.21
	654	26.2	1.08E+00	1.04E-04	1.04E-01	0.00E+00	1.08E+00	0.00E+00	10	...........	1505.21
	657	26.32	1.09E+00	1.05E-04	1.05E-01	0.00E+00	1.09E+00	0.00E+00	10	...........	1505.21
	660	26.44	1.09E+00	1.05E-04	1.05E-01	0.00E+00	1.09E+00	0.00E+00	10	...........	1505.21
	663	26.56	1.10E+00	1.06E-04	1.06E-01	0.00E+00	1.10E+00	0.00E+00	10	...........	1505.21
	666	26.68	1.11E+00	1.07E-04	1.07E-01	0.00E+00	1.11E+00	0.00E+00	10	...........	1505.4
	669	26.8	1.11E+00	1.07E-04	1.07E-01	0.00E+00	1.11E+00	0.00E+00	10	...........	1505.4
	672	26.92	1.12E+00	1.08E-04	1.08E-01	0.00E+00	1.12E+00	0.00E+00	10	...........	1505.4
	675	27.04	1.12E+00	1.08E-04	1.08E-01	0.00E+00	1.12E+00	0.00E+00	10	...........	1505.4
	678	27.16	1.13E+00	1.09E-04	1.09E-01	0.00E+00	1.13E+00	0.00E+00	10	...........	1505.4
	681	27.28	1.14E+00	1.10E-04	1.10E-01	0.00E+00	1.14E+00	0.00E+00	10	...........	1505.4
	684	27.4	1.14E+00	1.10E-04	1.10E-01	0.00E+00	1.14E+00	0.00E+00	10	...........	1505.4
	687	27.52	1.15E+00	1.11E-04	1.11E-01	0.00E+00	1.15E+00	0.00E+00	10	...........	1505.4
	690	27.64	1.15E+00	1.12E-04	1.12E-01	0.00E+00	1.15E+00	0.00E+00	10	...........	1505.34
	693	27.76	1.16E+00	1.13E-04	1.13E-01	0.00E+00	1.16E+00	0.00E+00	10	...........	1505.21
	696	27.88	1.17E+00	1.13E-04	1.13E-01	0.00E+00	1.17E+00	0.00E+00	10	...........	1505.21
	699	28	1.17E+00	1.14E-04	1.14E-01	0.00E+00	1.17E+00	0.00E+00	10	...........	1505.21
	702	28.12	1.18E+00	1.15E-04	1.15E-01	0.00E+00	1.18E+00	0.00E+00	10	...........	1505.21
	705	28.24	1.18E+00	1.16E-04	1.16E-01	0.00E+00	1.18E+00	0.00E+00	10	...........	1505.21
	708	28.36	1.19E+00	1.17E-04	1.17E-01	0.00E+00	1.19E+00	0.00E+00	10	...........	1505.21
	711	28.48	1.20E+00	1.18E-04	1.18E-01	0.00E+00	1.20E+00	0.00E+00	10	...........	1505.21
	714	28.6	1.20E+00	1.19E-04	1.19E-01	0.00E+00	1.20E+00	0.00E+00	10	...........	1505.21
	717	28.72	1.21E+00	1.20E-04	1.20E-01	0.00E+00	1.21E+00	0.00E+00	10	...........	1505.49
	720	28.84	1.21E+00	1.21E-04	1.21E-01	0.00E+00	1.21E+00	0.00E+00	10	...........	1505.49
	723	28.96	1.22E+00	1.22E-04	1.22E-01	0.00E+00	1.22E+00	0.00E+00	10	...........	1505.49
	726	29.08	1.23E+00	1.23E-04	1.23E-01	0.00E+00	1.23E+00	0.00E+00	10	...........	1505.49
	729	29.2	1.23E+00	1.24E-04	1.24E-01	0.00E+00	1.23E+00	0.00E+00	10	...........	1505.49
	732	29.32	1.24E+00	1.26E-04	1.26E-01	0.00E+00	1.24E+00	0.00E+00	10	...........	1505.49
	735	29.44	1.24E+00	1.27E-04	1.27E-01	0.00E+00	1.24E+00	0.00E+00	10	...........	1505.49
	738	29.56	1.25E+00	1.29E-04	1.29E-01	0.00E+00	1.25E+00	0.00E+00	10	...........	1505.49
	741	29.68	1.26E+00	1.30E-04	1.30E-01	0.00E+00	1.26E+00	0.00E+00	10	...........	1505.21
	744	29.8	1.26E+00	1.32E-04	1.32E-01	0.00E+00	1.26E+00	0.00E+00	10	...........	1505.21
	747	29.92	1.27E+00	1.34E-04	1.34E-01	0.00E+00	1.27E+00	0.00E+00	10	...........	1505.21
	750	30.04	1.27E+00	1.36E-04	1.36E-01	0.00E+00	1.27E+00	0.00E+00	10	...........	1505.21
	753	30.16	1.27E+00	1.02E-04	1.02E-01	0.00E+00	1.27E+00	0.00E+00	10	...........	1505.21
	756	30.28	1.26E+00	8.47E-05	8.47E-02	0.00E+00	1.26E+00	0.00E+00	10	...........	1505.21
	759	30.4	1.26E+00	7.17E-05	7.17E-02	0.00E+00	1.26E+00	0.00E+00	10	...........	1505.21
	762	30.52	1.25E+00	6.16E-05	6.16E-02	0.00E+00	1.25E+00	0.00E+00	10	...........	1505.21
	765	30.64	1.24E+00	5.33E-05	5.33E-02	0.00E+00	1.24E+00	0.00E+00	10	...........	1505.3
	768	30.76	1.24E+00	4.63E-05	4.63E-02	0.00E+00	1.24E+00	0.00E+00	10	...........	1505.49
	771	30.88	1.23E+00	4.07E-05	4.07E-02	0.00E+00	1.23E+00	0.00E+00	10	...........	1505.49
	774	31	1.23E+00	3.61E-05	3.61E-02	0.00E+00	1.23E+00	0.00E+00	10	...........	1505.49
	777	31.12	1.22E+00	3.21E-05	3.21E-02	0.00E+00	1.22E+00	0.00E+00	10	...........	1505.49
	780	31.24	1.21E+00	2.86E-05	2.86E-02	0.00E+00	1.21E+00	0.00E+00	10	...........	1505.49
	783	31.36	1.21E+00	2.55E-05	2.55E-02	0.00E+00	1.21E+00	0.00E+00	10	...........	1505.49
	786	31.48	1.20E+00	2.27E-05	2.27E-02	0.00E+00	1.20E+00	0.00E+00	10	...........	1505.49
	789	31.6	1.20E+00	2.04E-05	2.04E-02	0.00E+00	1.20E+00	0.00E+00	10	...........	1505.49
	792	31.72	1.19E+00	1.85E-05	1.85E-02	0.00E+00	1.19E+00	0.00E+00	10	...........	1505.12
	795	31.84	1.18E+00	1.67E-05	1.67E-02	0.00E+00	1.18E+00	0.00E+00	10	...........	1505.12
	798	31.96	1.18E+00	1.49E-05	1.49E-02	0.00E+00	1.18E+00	0.00E+00	10	...........	1505.12
	801	32.08	1.17E+00	1.34E-05	1.34E-02	0.00E+00	1.17E+00	0.00E+00	10	...........	1505.12
	804	32.2	1.17E+00	1.21E-05	1.21E-02	0.00E+00	1.17E+00	0.00E+00	10	...........	1505.12
	807	32.32	1.16E+00	1.08E-05	1.08E-02	0.00E+00	1.16E+00	0.00E+00	10	...........	1505.12
	810	32.44	1.15E+00	9.68E-06	9.68E-03	0.00E+00	1.15E+00	0.00E+00	10	...........	1505.12
	813	32.56	1.15E+00	8.53E-06	8.53E-03	0.00E+00	1.15E+00	0.00E+00	10	...........	1505.12
	816	32.68	1.14E+00	7.53E-06	7.53E-03	0.00E+00	1.14E+00	0.00E+00	10	...........	1505.58
	819	32.8	1.14E+00	6.69E-06	6.69E-03	0.00E+00	1.14E+00	0.00E+00	10	...........	1505.58
	822	32.92	1.13E+00	5.92E-06	5.92E-03	0.00E+00	1.13E+00	0.00E+00	10	...........	1505.58
	825	33.04	1.12E+00	4.98E-06	4.98E-03	0.00E+00	1.12E+00	0.00E+00	10	...........	1505.58
	828	33.16	1.12E+00	4.23E-06	4.23E-03	0.00E+00	1.12E+00	0.00E+00	10	...........	1505.58
	831	33.28	1.11E+00	3.50E-06	3.50E-03	0.00E+00	1.11E+00	0.00E+00	10	...........	1505.58
	834	33.4	1.11E+00	2.91E-06	2.91E-03	0.00E+00	1.11E+00	0.00E+00	10	...........	1505.58
	837	33.52	1.10E+00	2.37E-06	2.37E-03	0.00E+00	1.10E+00	0.00E+00	10	...........	1505.58
	840	33.64	1.09E+00	1.84E-06	1.84E-03	0.00E+00	1.09E+00	0.00E+00	10	...........	1505.42
	843	33.76	1.09E+00	1.19E-06	1.19E-03	0.00E+00	1.09E+00	0.00E+00	10	...........	1505.12
	846	33.88	1.08E+00	5.56E-07	5.56E-04	0.00E+00	1.08E+00	0.00E+00	10	...........	1505.12
	849	34	1.08E+00	1.11E-07	1.11E-04	0.00E+00	1.08E+00	0.00E+00	10	...........	1505.12
	852	34.12	1.07E+00	-2.32E-07	-2.32E-04	0.00E+00	1.07E+00	0.00E+00	10	...........	1505.12
	855	34.24	1.06E+00	-7.04E-07	-7.04E-04	0.00E+00	1.06E+00	0.00E+00	10	...........	1505.12
	858	34.36	1.06E+00	-1.09E-06	-1.09E-03	0.00E+00	1.06E+00	0.00E+00	10	...........	1505.12
	861	34.48	1.05E+00	-1.61E-06	-1.61E-03	0.00E+00	1.05E+00	0.00E+00	10	...........	1505.12
	864	34.6	1.05E+00	-2.08E-06	-2.08E-03	0.00E+00	1.05E+00	0.00E+00	10	...........	1505.12
	867	34.72	1.04E+00	-2.55E-06	-2.55E-03	0.00E+00	1.04E+00	0.00E+00	10	...........	1505.21
	870	34.84	1.03E+00	-2.97E-06	-2.97E-03	0.00E+00	1.03E+00	0.00E+00	10	...........	1505.21
	873	34.96	1.03E+00	-3.45E-06	-3.45E-03	0.00E+00	1.03E+00	0.00E+00	10	...........	1505.21
	876	35.08	1.02E+00	-3.79E-06	-3.79E-03	0.00E+00	1.02E+00	0.00E+00	10	...........	1505.21
	879	35.2	1.02E+00	-4.09E-06	-4.09E-03	0.00E+00	1.02E+00	0.00E+00	10	...........	1505.21
	882	35.32	1.01E+00	-4.40E-06	-4.40E-03	0.00E+00	1.01E+00	0.00E+00	10	...........	1505.21
	885	35.44	1.00E+00	-4.87E-06	-4.87E-03	0.00E+00	1.00E+00	0.00E+00	10	...........	1505.21
	888	35.56	9.97E-01	-5.34E-06	-5.34E-03	0.00E+00	9.97E-01	0.00E+00	10	...........	1505.21
	891	35.68	9.91E-01	-5.75E-06	-5.75E-03	0.00E+00	9.91E-01	0.00E+00	10	...........	1505.12
	894	35.8	9.85E-01	-6.08E-06	-6.08E-03	0.00E+00	9.85E-01	0.00E+00	10	...........	1505.12
	897	35.92	9.79E-01	-6.33E-06	-6.33E-03	0.00E+00	9.79E-01	0.00E+00	10	...........	1505.12
	900	36.04	9.73E-01	-6.73E-06	-6.73E-03	0.00E+00	9.73E-01	0.00E+00	10	...........	1505.12
	903	36.16	9.67E-01	-7.26E-06	-7.26E-03	0.00E+00	9.67E-01	0.00E+00	10	...........	1505.12
	906	36.28	9.61E-01	-7.72E-06	-7.72E-03	0.00E+00	9.61E-01	0.00E+00	10	...........	1505.12
	909	36.4	9.55E-01	-8.03E-06	-8.03E-03	0.00E+00	9.55E-01	0.00E+00	10	...........	1505.12
	912	36.52	9.49E-01	-8.43E-06	-8.43E-03	0.00E+00	9.49E-01	0.00E+00	10	...........	1505.12
	915	36.64	9.43E-01	-8.74E-06	-8.74E-03	0.00E+00	9.43E-01	0.00E+00	10	...........	1505.19
	918	36.76	9.37E-01	-9.16E-06	-9.16E-03	0.00E+00	9.37E-01	0.00E+00	10	...........	1505.3
	921	36.88	9.31E-01	-9.47E-06	-9.47E-03	0.00E+00	9.31E-01	0.00E+00	10	...........	1505.3
	924	37	9.25E-01	-9.91E-06	-9.91E-03	0.00E+00	9.25E-01	0.00E+00	10	...........	1505.3
	927	37.12	9.19E-01	-1.04E-05	-1.04E-02	0.00E+00	9.19E-01	0.00E+00	10	...........	1505.3
	930	37.24	9.13E-01	-1.10E-05	-1.10E-02	0.00E+00	9.13E-01	0.00E+00	10	...........	1505.3
	933	37.36	9.07E-01	-1.14E-05	-1.14E-02	0.00E+00	9.07E-01	0.00E+00	10	...........	1505.3
	936	37.48	9.01E-01	-1.20E-05	-1.20E-02	0.00E+00	9.01E-01	0.00E+00	10	...........	1505.3
	939	37.6	8.95E-01	-1.24E-05	-1.24E-02	0.00E+00	8.95E-01	0.00E+00	10	...........	1505.3
	942	37.72	8.89E-01	-1.28E-05	-1.28E-02	0.00E+00	8.89E-01	0.00E+00	10	...........	1505.12
	945	37.84	8.83E-01	-1.33E-05	-1.33E-02	0.00E+00	8.83E-01	0.00E+00	10	...........	1505.12
	948	37.96	8.77E-01	-1.39E-05	-1.39E-02	0.00E+00	8.77E-01	0.00E+00	10	...........	1505.12
	951	38.08	8.71E-01	-1.46E-05	-1.46E-02	0.00E+00	8.71E-01	0.00E+00	10	...........	1505.12
	954	38.2	8.65E-01	-1.52E-05	-1.52E-02	0.00E+00	8.65E-01	0.00E+00	10	...........	1505.12
	957	38.32	8.59E-01	-1.57E-05	-1.57E-02	0.00E+00	8.59E-01	0.00E+00	10	...........	1505.12
	960	38.44	8.53E-01	-1.64E-05	-1.64E-02	0.00E+00	8.53E-01	0.00E+00	10	...........	1505.12
	963	38.56	8.47E-01	-1.71E-05	-1.71E-02	0.00E+00	8.47E-01	0.00E+00	10	...........	1505.12
	966	38.68	8.41E-01	-1.78E-05	-1.78E-02	0.00E+00	8.41E-01	0.00E+00	10	...........	1505.4
	969	38.8	8.35E-01	-1.86E-05	-1.86E-02	0.00E+00	8.35E-01	0.00E+00	10	...........	1505.4
	972	38.92	8.29E-01	-1.92E-05	-1.92E-02	0.00E+00	8.29E-01	0.00E+00	10	...........	1505.4
	975	39.04	8.23E-01	-2.01E-05	-2.01E-02	0.00E+00	8.23E-01	0.00E+00	10	...........	1505.4
	978	39.16	8.17E-01	-2.09E-05	-2.09E-02	0.00E+00	8.17E-01	0.00E+00	10	...........	1505.4
	981	39.28	8.11E-01	-2.17E-05	-2.17E-02	0.00E+00	8.11E-01	0.00E+00	10	...........	1505.4
	984	39.4	8.05E-01	-2.26E-05	-2.26E-02	0.00E+00	8.05E-01	0.00E+00	10	...........	1505.4
	987	39.52	7.99E-01	-2.36E-05	-2.36E-02	0.00E+00	7.99E-01	0.00E+00	10	...........	1505.4
	990	39.64	7.93E-01	-2.47E-05	-2.47E-02	0.00E+00	7.93E-01	0.00E+00	10	...........	1505.29
	993	39.76	7.87E-01	-2.57E-05	-2.57E-02	0.00E+00	7.87E-01	0.00E+00	10	...........	1505.12
	996	39.88	7.81E-01	-2.67E-05	-2.67E-02	0.00E+00	7.81E-01	0.00E+00	10	...........	1505.12
	999	40	7.75E-01	-2.77E-05	-2.77E-02	0.00E+00	7.75E-01	0.00E+00	10	...........	1505.12
	1002	40.12	7.69E-01	-2.89E-05	-2.89E-02	0.00E+00	7.69E-01	0.00E+00	10	...........	1505.12
	1005	40.24	7.63E-01	-3.03E-05	-3.03E-02	0.00E+00	7.63E-01	0.00E+00	10	...........	1505.12
	1008	40.36	7.57E-01	-3.18E-05	-3.18E-02	0.00E+00	7.57E-01	0.00E+00	10	...........	1505.12
	1011	40.48	7.51E-01	-3.32E-05	-3.32E-02	0.00E+00	7.51E-01	0.00E+00	10	...........	1505.12
	1014	40.6	7.45E-01	-3.46E-05	-3.46E-02	0.00E+00	7.45E-01	0.00E+00	10	...........	1505.12
	1017	40.72	7.39E-01	-3.62E-05	-3.62E-02	0.00E+00	7.39E-01	0.00E+00	10	...........	1505.12
	1020	40.84	7.33E-01	-3.79E-05	-3.79E-02	0.00E+00	7.33E-01	0.00E+00	10	...........	1505.12
	1023	40.96	7.27E-01	-3.98E-05	-3.98E-02	0.00E+00	7.27E-01	0.00E+00	10	...........	1505.12
	1026	41.08	7.21E-01	-4.18E-05	-4.18E-02	0.00E+00	7.21E-01	0.00E+00	10	...........	1505.12
	1029	41.2	7.15E-01	-4.38E-05	-4.38E-02	0.00E+00	7.15E-01	0.00E+00	10	...........	1505.12
	1032	41.32	7.09E-01	-4.59E-05	-4.59E-02	0.00E+00	7.09E-01	0.00E+00	10	...........	1505.12
	1035	41.44	7.03E-01	-4.82E-05	-4.82E-02	0.00E+00	7.03E-01	0.00E+00	10	...........	1505.12
	1038	41.56	6.97E-01	-5.08E-05	-5.08E-02	0.00E+00	6.97E-01	0.00E+00	10	...........	1505.12
	1041	41.68	6.91E-01	-5.35E-05	-5.35E-02	0.00E+00	6.91E-01	0.00E+00	10	...........	1505.12
	1044	41.8	6.85E-01	-5.63E-05	-5.63E-02	0.00E+00	6.85E-01	0.00E+00	10	...........	1505.12
	1047	41.92	6.79E-01	-5.91E-05	-5.91E-02	0.00E+00	6.79E-01	0.00E+00	10	...........	1505.12
	1050	42.04	6.73E-01	-6.22E-05	-6.22E-02	0.00E+00	6.73E-01	0.00E+00	10	...........	1505.12
	1053	42.16	6.67E-01	-6.54E-05	-6.54E-02	0.00E+00	6.67E-01	0.00E+00	10	...........	1505.12
	1056	42.28	6.61E-01	-6.89E-05	-6.89E-02	0.00E+00	6.61E-01	0.00E+00	10	...........	1505.12
	1059	42.4	6.55E-01	-7.26E-05	-7.26E-02	0.00E+00	6.55E-01	0.00E+00	10	...........	1505.12
	1062	42.52	6.49E-01	-7.65E-05	-7.65E-02	0.00E+00	6.49E-01	0.00E+00	10	...........	1505.12
	1065	42.64	6.43E-01	-8.08E-05	-8.08E-02	0.00E+00	6.43E-01	0.00E+00	10	...........	1505.12
	1068	42.76	6.37E-01	-8.53E-05	-8.53E-02	0.00E+00	6.37E-01	0.00E+00	10	...........	1505.12
	1071	42.88	6.31E-01	-9.01E-05	-9.01E-02	0.00E+00	6.31E-01	0.00E+00	10	...........	1505.12
	1074	43	6.25E-01	-9.50E-05	-9.50E-02	0.00E+00	6.25E-01	0.00E+00	10	...........	1505.12
	1077	43.12	6.19E-01	-1.00E-04	-1.00E-01	0.00E+00	6.19E-01	0.00E+00	10	...........	1505.12
	1080	43.24	6.13E-01	-1.06E-04	-1.06E-01	0.00E+00	6.13E-01	0.00E+00	10	...........	1505.12
	1083	43.36	6.07E-01	-1.12E-04	-1.12E-01	0.00E+00	6.07E-01	0.00E+00	10	...........	1505.12
	1086	43.48	6.01E-01	-1.18E-04	-1.18E-01	0.00E+00	6.01E-01	0.00E+00	10	...........	1505.12
	1089	43.6	5.95E-01	-1.24E-04	-1.24E-01	0.00E+00	5.95E-01	0.00E+00	10	...........	1505.12
	1092	43.72	5.89E-01	-1.30E-04	-1.30E-01	0.00E+00	5.89E-01	0.00E+00	10	...........	1505.58
	1095	43.84	5.83E-01	-1.37E-04	-1.37E-01	0.00E+00	5.83E-01	0.00E+00	10	...........	1505.58
	1098	43.96	5.77E-01	-1.43E-04	-1.43E-01	0.00E+00	5.77E-01	0.00E+00	10	...........	1505.58
	1101	44.08	5.71E-01	-1.49E-04	-1.49E-01	0.00E+00	5.71E-01	0.00E+00	10	...........	1505.58
	1104	44.2	5.65E-01	-1.54E-04	-1.54E-01	0.00E+00	5.65E-01	0.00E+00	10	...........	1505.58
	1107	44.32	5.59E-01	-1.59E-04	-1.59E-01	0.00E+00	5.59E-01	0.00E+00	10	...........	1505.58
	1110	44.44	5.53E-01	-1.64E-04	-1.64E-01	0.00E+00	5.53E-01	0.00E+00	10	...........	1505.58
	1113	44.56	5.47E-01	-1.67E-04	-1.67E-01	0.00E+00	5.47E-01	0.00E+00	10	...........	1505.58
	1116	44.68	5.41E-01	-1.70E-04	-1.70E-01	0.00E+00	5.41E-01	0.00E+00	10	...........	1505.12
	1119	44.8	5.35E-01	-1.72E-04	-1.72E-01	0.00E+00	5.35E-01	0.00E+00	10	...........	1505.12
	1122	44.92	5.29E-01	-1.73E-04	-1.73E-01	0.00E+00	5.29E-01	0.00E+00	10	...........	1505.12
	1125	45.04	5.23E-01	-1.72E-04	-1.72E-01	0.00E+00	5.23E-01	0.00E+00	10	...........	1505.12
	1128	45.16	5.17E-01	-1.70E-04	-1.70E-01	0.00E+00	5.17E-01	0.00E+00	10	...........	1505.12
	1131	45.28	5.11E-01	-1.67E-04	-1.67E-01	0.00E+00	5.11E-01	0.00E+00	10	...........	1505.12
	1134	45.4	5.05E-01	-1.63E-04	-1.63E-01	0.00E+00	5.05E-01	0.00E+00	10	...........	1505.12
	1137	45.52	4.99E-01	-1.58E-04	-1.58E-01	0.00E+00	4.99E-01	0.00E+00	10	...........	1505.12
	1140	45.64	4.93E-01	-1.53E-04	-1.53E-01	0.00E+00	4.93E-01	0.00E+00	10	...........	1505.33
	1143	45.76	4.87E-01	-1.46E-04	-1.46E-01	0.00E+00	4.87E-01	0.00E+00	10	...........	1505.58
	1146	45.88	4.81E-01	-1.39E-04	-1.39E-01	0.00E+00	4.81E-01	0.00E+00	10	...........	1505.58
	1149	46	4.75E-01	-1.32E-04	-1.32E-01	0.00E+00	4.75E-01	0.00E+00	10	...........	1505.58
	1152	46.12	4.69E-01	-1.24E-04	-1.24E-01	0.00E+00	4.69E-01	0.00E+00	10	...........	1505.58
	1155	46.24	4.63E-01	-1.17E-04	-1.17E-01	0.00E+00	4.63E-01	0.00E+00	10	...........	1505.58
	1158	46.36	4.57E-01	-1.10E-04	-1.10E-01	0.00E+00	4.57E-01	0.00E+00	10	...........	1505.58
	1161	46.48	4.51E-01	-1.03E-04	-1.03E-01	0.00E+00	4.51E-01	0.00E+00	10	...........	1505.58
	1164	46.6	4.45E-01	-9.67E-05	-9.67E-02	0.00E+00	4.45E-01	0.00E+00	10	...........	1505.58
	1167	46.72	4.39E-01	-9.03E-05	-9.03E-02	0.00E+00	4.39E-01	0.00E+00	10	...........	1505.12
	1170	46.84	4.33E-01	-8.43E-05	-8.43E-02	0.00E+00	4.33E-01	0.00E+00	10	...........	1505.12
	1173	46.96	4.27E-01	-7.88E-05	-7.88E-02	0.00E+00	4.27E-01	0.00E+00	10	...........	1505.12
	1176	47.08	4.21E-01	-7.36E-05	-7.36E-02	0.00E+00	4.21E-01	0.00E+00	10	...........	1505.12
	1179	47.2	4.15E-01	-6.90E-05	-6.90E-02	0.00E+00	4.15E-01	0.00E+00	10	...........	1505.12
	1182	47.32	4.09E-01	-6.47E-05	-6.47E-02	0.00E+00	4.09E-01	0.00E+00	10	...........	1505.12
	1185	47.44	4.03E-01	-6.08E-05	-6.08E-02	0.00E+00	4.03E-01	0.00E+00	10	...........	1505.12
	1188	47.56	3.97E-01	-5.72E-05	-5.72E-02	0.00E+00	3.97E-01	0.00E+00	10	...........	1505.12
	1191	47.68	3.91E-01	-5.37E-05	-5.37E-02	0.00E+00	3.91E-01	0.00E+00	10	...........	1505.12
	1194	47.8	3.85E-01	-5.07E-05	-5.07E-02	0.00E+00	3.85E-01	0.00E+00	10	...........	1505.12
	1197	47.92	3.79E-01	-4.79E-05	-4.79E-02	0.00E+00	3.79E-01	0.00E+00	10	...........	1505.12
	1200	48.04	3.73E-01	-4.53E-05	-4.53E-02	0.00E+00	3.73E-01	0.00E+00	10	...........	1505.12
	1203	48.16	3.67E-01	-4.30E-05	-4.30E-02	0.00E+00	3.67E-01	0.00E+00	10	...........	1505.12
	1206	48.28	3.61E-01	-4.06E-05	-4.06E-02	0.00E+00	3.61E-01	0.00E+00	10	...........	1505.12
	1209	48.4	3.55E-01	-3.86E-05	-3.86E-02	0.00E+00	3.55E-01	0.00E+00	10	...........	1505.12
	1212	48.52	3.49E-01	-3.67E-05	-3.67E-02	0.00E+00	3.49E-01	0.00E+00	10	...........	1505.12
	1215	48.64	3.43E-01	-3.49E-05	-3.49E-02	0.00E+00	3.43E-01	0.00E+00	10	...........	1505.16
	1218	48.76	3.37E-01	-3.33E-05	-3.33E-02	0.00E+00	3.37E-01	0.00E+00	10	...........	1505.21
	1221	48.88	3.31E-01	-3.19E-05	-3.19E-02	0.00E+00	3.31E-01	0.00E+00	10	...........	1505.21
	1224	49	3.25E-01	-3.06E-05	-3.06E-02	0.00E+00	3.25E-01	0.00E+00	10	...........	1505.21
	1227	49.12	3.19E-01	-2.95E-05	-2.95E-02	0.00E+00	3.19E-01	0.00E+00	10	...........	1505.21
	1230	49.24	3.13E-01	-2.83E-05	-2.83E-02	0.00E+00	3.13E-01	0.00E+00	10	...........	1505.21
	1233	49.36	3.07E-01	-2.73E-05	-2.73E-02	0.00E+00	3.07E-01	0.00E+00	10	...........	1505.21
	1236	49.48	3.01E-01	-2.63E-05	-2.63E-02	0.00E+00	3.01E-01	0.00E+00	10	...........	1505.21
	1239	49.6	2.95E-01	-2.54E-05	-2.54E-02	0.00E+00	2.95E-01	0.00E+00	10	...........	1505.21
	1242	49.72	2.89E-01	-2.47E-05	-2.47E-02	0.00E+00	2.89E-01	0.00E+00	10	...........	1505.58
	1245	49.84	2.83E-01	-2.40E-05	-2.40E-02	0.00E+00	2.83E-01	0.00E+00	10	...........	1505.58
	1248	49.96	2.77E-01	-2.34E-05	-2.34E-02	0.00E+00	2.77E-01	0.00E+00	10	...........	1505.58
	1251	50.08	2.71E-01	-2.28E-05	-2.28E-02	0.00E+00	2.71E-01	0.00E+00	10	...........	1505.58
	1254	50.2	2.65E-01	-2.22E-05	-2.22E-02	0.00E+00	2.65E-01	0.00E+00	10	...........	1505.58
	1257	50.32	2.59E-01	-2.19E-05	-2.19E-02	0.00E+00	2.59E-01	0.00E+00	10	...........	1505.58
	1260	50.44	2.53E-01	-2.16E-05	-2.16E-02	0.00E+00	2.53E-01	0.00E+00	10	...........	1505.58
	1263	50.56	2.47E-01	-2.13E-05	-2.13E-02	0.00E+00	2.47E-01	0.00E+00	10	...........	1505.58
	1266	50.68	2.41E-01	-2.10E-05	-2.10E-02	0.00E+00	2.41E-01	0.00E+00	10	...........	1505.12
	1269	50.8	2.35E-01	-2.09E-05	-2.09E-02	0.00E+00	2.35E-01	0.00E+00	10	...........	1505.12
	1272	50.92	2.29E-01	-2.06E-05	-2.06E-02	0.00E+00	2.29E-01	0.00E+00	10	...........	1505.12
	1275	51.04	2.23E-01	-2.04E-05	-2.04E-02	0.00E+00	2.23E-01	0.00E+00	10	...........	1505.12
	1278	51.16	2.17E-01	-2.03E-05	-2.03E-02	0.00E+00	2.17E-01	0.00E+00	10	...........	1505.12
	1281	51.28	2.11E-01	-2.03E-05	-2.03E-02	0.00E+00	2.11E-01	0.00E+00	10	...........	1505.12
[...]
	44521	1780.88	7.31E-01	-4.85E-05	-4.85E-02	0.00E+00	7.31E-01	0.00E+00	10	...........	1505.12
	44524	1781	7.25E-01	-5.10E-05	-5.10E-02	0.00E+00	7.25E-01	0.00E+00	10	...........	1505.12
	44527	1781.12	7.19E-01	-5.37E-05	-5.37E-02	0.00E+00	7.19E-01	0.00E+00	10	...........	1505.58
	44530	1781.24	7.13E-01	-5.65E-05	-5.65E-02	0.00E+00	7.13E-01	0.00E+00	10	...........	1505.58
	44533	1781.36	7.07E-01	-5.94E-05	-5.94E-02	0.00E+00	7.07E-01	0.00E+00	10	...........	1505.58
	44536	1781.48	7.01E-01	-6.26E-05	-6.26E-02	0.00E+00	7.01E-01	0.00E+00	10	...........	1505.58
	44539	1781.6	6.95E-01	-6.62E-05	-6.62E-02	0.00E+00	6.95E-01	0.00E+00	10	...........	1505.58
	44542	1781.72	6.89E-01	-7.02E-05	-7.02E-02	0.00E+00	6.89E-01	0.00E+00	10	...........	1505.58
	44545	1781.84	6.83E-01	-7.45E-05	-7.45E-02	0.00E+00	6.83E-01	0.00E+00	10	...........	1505.58
	44548	1781.96	6.77E-01	-7.88E-05	-7.88E-02	0.00E+00	6.77E-01	0.00E+00	10	...........	1505.58
	44551	1782.08	6.71E-01	-8.36E-05	-8.36E-02	0.00E+00	6.71E-01	0.00E+00	10	...........	1505.12
	44554	1782.2	6.65E-01	-8.87E-05	-8.87E-02	0.00E+00	6.65E-01	0.00E+00	10	...........	1505.12
	44557	1782.32	6.59E-01	-9.45E-05	-9.45E-02	0.00E+00	6.59E-01	0.00E+00	10	...........	1505.12
	44560	1782.44	6.53E-01	-1.01E-04	-1.01E-01	0.00E+00	6.53E-01	0.00E+00	10	...........	1505.12
	44563	1782.56	6.47E-01	-1.07E-04	-1.07E-01	0.00E+00	6.47E-01	0.00E+00	10	...........	1505.12
	44566	1782.68	6.41E-01	-1.14E-04	-1.14E-01	0.00E+00	6.41E-01	0.00E+00	10	...........	1505.12
	44569	1782.8	6.35E-01	-1.22E-04	-1.22E-01	0.00E+00	6.35E-01	0.00E+00	10	...........	1505.12
	44572	1782.92	6.29E-01	-1.30E-04	-1.30E-01	0.00E+00	6.29E-01	0.00E+00	10	...........	1505.12
	44575	1783.04	6.23E-01	-1.38E-04	-1.38E-01	0.00E+00	6.23E-01	0.00E+00	10	...........	1505.35
	44578	1783.16	6.17E-01	-1.47E-04	-1.47E-01	0.00E+00	6.17E-01	0.00E+00	10	...........	1505.58
	44581	1783.28	6.11E-01	-1.57E-04	-1.57E-01	0.00E+00	6.11E-01	0.00E+00	10	...........	1505.58
	44584	1783.4	6.05E-01	-1.66E-04	-1.66E-01	0.00E+00	6.05E-01	0.00E+00	10	...........	1505.58
	44587	1783.52	5.99E-01	-1.76E-04	-1.76E-01	0.00E+00	5.99E-01	0.00E+00	10	...........	1505.58
	44590	1783.64	5.93E-01	-1.86E-04	-1.86E-01	0.00E+00	5.93E-01	0.00E+00	10	...........	1505.58
	44593	1783.76	5.87E-01	-1.96E-04	-1.96E-01	0.00E+00	5.87E-01	0.00E+00	10	...........	1505.58
	44596	1783.88	5.81E-01	-2.06E-04	-2.06E-01	0.00E+00	5.81E-01	0.00E+00	10	...........	1505.58
	44599	1784	5.75E-01	-2.15E-04	-2.15E-01	0.00E+00	5.75E-01	0.00E+00	10	...........	1505.58
	44602	1784.12	5.69E-01	-2.23E-04	-2.23E-01	0.00E+00	5.69E-01	0.00E+00	10	...........	1505.12
	44605	1784.24	5.63E-01	-2.31E-04	-2.31E-01	0.00E+00	5.63E-01	0.00E+00	10	...........	1505.12
	44608	1784.36	5.57E-01	-2.36E-04	-2.36E-01	0.00E+00	5.57E-01	0.00E+00	10	...........	1505.12
	44611	1784.48	5.51E-01	-2.40E-04	-2.40E-01	0.00E+00	5.51E-01	0.00E+00	10	...........	1505.12
	44614	1784.6	5.45E-01	-2.42E-04	-2.42E-01	0.00E+00	5.45E-01	0.00E+00	10	...........	1505.12
	44617	1784.72	5.39E-01	-2.42E-04	-2.42E-01	0.00E+00	5.39E-01	0.00E+00	10	...........	1505.12
	44620	1784.84	5.33E-01	-2.39E-04	-2.39E-01	0.00E+00	5.33E-01	0.00E+00	10	...........	1505.12
	44623	1784.96	5.27E-01	-2.34E-04	-2.34E-01	0.00E+00	5.27E-01	0.00E+00	10	...........	1505.12
	44626	1785.08	5.21E-01	-2.27E-04	-2.27E-01	0.00E+00	5.21E-01	0.00E+00	10	...........	1505.12
	44629	1785.2	5.15E-01	-2.19E-04	-2.19E-01	0.00E+00	5.15E-01	0.00E+00	10	...........	1505.12
	44632	1785.32	5.09E-01	-2.09E-04	-2.09E-01	0.00E+00	5.09E-01	0.00E+00	10	...........	1505.12
	44635	1785.44	5.03E-01	-1.98E-04	-1.98E-01	0.00E+00	5.03E-01	0.00E+00	10	...........	1505.12
	44638	1785.56	4.97E-01	-1.86E-04	-1.86E-01	0.00E+00	4.97E-01	0.00E+00	10	...........	1505.12
	44641	1785.68	4.91E-01	-1.73E-04	-1.73E-01	0.00E+00	4.91E-01	0.00E+00	10	...........	1505.12
	44644	1785.8	4.85E-01	-1.61E-04	-1.61E-01	0.00E+00	4.85E-01	0.00E+00	10	...........	1505.12
	44647	1785.92	4.79E-01	-1.48E-04	-1.48E-01	0.00E+00	4.79E-01	0.00E+00	10	...........	1505.12
	44650	1786.04	4.73E-01	-1.36E-04	-1.36E-01	0.00E+00	4.73E-01	0.00E+00	10	...........	1505.12
	44653	1786.16	4.67E-01	-1.25E-04	-1.25E-01	0.00E+00	4.67E-01	0.00E+00	10	...........	1505.12
	44656	1786.28	4.61E-01	-1.15E-04	-1.15E-01	0.00E+00	4.61E-01	0.00E+00	10	...........	1505.12
	44659	1786.4	4.55E-01	-1.05E-04	-1.05E-01	0.00E+00	4.55E-01	0.00E+00	10	...........	1505.12
	44662	1786.52	4.49E-01	-9.63E-05	-9.63E-02	0.00E+00	4.49E-01	0.00E+00	10	...........	1505.12
	44665	1786.64	4.43E-01	-8.84E-05	-8.84E-02	0.00E+00	4.43E-01	0.00E+00	10	...........	1505.12
	44668	1786.76	4.37E-01	-8.12E-05	-8.12E-02	0.00E+00	4.37E-01	0.00E+00	10	...........	1505.12
	44671	1786.88	4.31E-01	-7.48E-05	-7.48E-02	0.00E+00	4.31E-01	0.00E+00	10	...........	1505.12
	44674	1787	4.25E-01	-6.91E-05	-6.91E-02	0.00E+00	4.25E-01	0.00E+00	10	...........	1505.12
	44677	1787.12	4.19E-01	-6.40E-05	-6.40E-02	0.00E+00	4.19E-01	0.00E+00	10	...........	1505.58
	44680	1787.24	4.13E-01	-5.93E-05	-5.93E-02	0.00E+00	4.13E-01	0.00E+00	10	...........	1505.58
	44683	1787.36	4.07E-01	-5.51E-05	-5.51E-02	0.00E+00	4.07E-01	0.00E+00	10	...........	1505.58
	44686	1787.48	4.01E-01	-5.14E-05	-5.14E-02	0.00E+00	4.01E-01	0.00E+00	10	...........	1505.58
	44689	1787.6	3.95E-01	-4.80E-05	-4.80E-02	0.00E+00	3.95E-01	0.00E+00	10	...........	1505.58
	44692	1787.72	3.89E-01	-4.50E-05	-4.50E-02	0.00E+00	3.89E-01	0.00E+00	10	...........	1505.58
	44695	1787.84	3.83E-01	-4.22E-05	-4.22E-02	0.00E+00	3.83E-01	0.00E+00	10	...........	1505.58
	44698	1787.96	3.77E-01	-3.97E-05	-3.97E-02	0.00E+00	3.77E-01	0.00E+00	10	...........	1505.58
	44701	1788.08	3.71E-01	-3.73E-05	-3.73E-02	0.00E+00	3.71E-01	0.00E+00	10	...........	1505.12
	44704	1788.2	3.65E-01	-3.53E-05	-3.53E-02	0.00E+00	3.65E-01	0.00E+00	10	...........	1505.12
	44707	1788.32	3.59E-01	-3.35E-05	-3.35E-02	0.00E+00	3.59E-01	0.00E+00	10	...........	1505.12
	44710	1788.44	3.53E-01	-3.17E-05	-3.17E-02	0.00E+00	3.53E-01	0.00E+00	10	...........	1505.12
	44713	1788.56	3.47E-01	-3.01E-05	-3.01E-02	0.00E+00	3.47E-01	0.00E+00	10	...........	1505.12
	44716	1788.68	3.41E-01	-2.87E-05	-2.87E-02	0.00E+00	3.41E-01	0.00E+00	10	...........	1505.12
	44719	1788.8	3.35E-01	-2.75E-05	-2.75E-02	0.00E+00	3.35E-01	0.00E+00	10	...........	1505.12
	44722	1788.92	3.29E-01	-2.62E-05	-2.62E-02	0.00E+00	3.29E-01	0.00E+00	10	...........	1505.12
	44725	1789.04	3.23E-01	-2.50E-05	-2.50E-02	0.00E+00	3.23E-01	0.00E+00	10	...........	1505.38
	44728	1789.16	3.17E-01	-2.39E-05	-2.39E-02	0.00E+00	3.17E-01	0.00E+00	10	...........	1505.58
	44731	1789.28	3.11E-01	-2.31E-05	-2.31E-02	0.00E+00	3.11E-01	0.00E+00	10	...........	1505.58
	44734	1789.4	3.05E-01	-2.24E-05	-2.24E-02	0.00E+00	3.05E-01	0.00E+00	10	...........	1505.58
	44737	1789.52	2.99E-01	-2.17E-05	-2.17E-02	0.00E+00	2.99E-01	0.00E+00	10	...........	1505.58
	44740	1789.64	2.93E-01	-2.10E-05	-2.10E-02	0.00E+00	2.93E-01	0.00E+00	10	...........	1505.58
	44743	1789.76	2.87E-01	-2.03E-05	-2.03E-02	0.00E+00	2.87E-01	0.00E+00	10	...........	1505.58
	44746	1789.88	2.81E-01	-1.98E-05	-1.98E-02	0.00E+00	2.81E-01	0.00E+00	10	...........	1505.58
	44749	1790	2.75E-01	-1.93E-05	-1.93E-02	0.00E+00	2.75E-01	0.00E+00	10	...........	1505.58
	44752	1790.12	2.69E-01	-1.88E-05	-1.88E-02	0.00E+00	2.69E-01	0.00E+00	10	...........	1505.12
	44755	1790.24	2.63E-01	-1.85E-05	-1.85E-02	0.00E+00	2.63E-01	0.00E+00	10	...........	1505.12
	44758	1790.36	2.57E-01	-1.81E-05	-1.81E-02	0.00E+00	2.57E-01	0.00E+00	10	...........	1505.12
	44761	1790.48	2.51E-01	-1.78E-05	-1.78E-02	0.00E+00	2.51E-01	0.00E+00	10	...........	1505.12
	44764	1790.6	2.45E-01	-1.76E-05	-1.76E-02	0.00E+00	2.45E-01	0.00E+00	10	...........	1505.12
	44767	1790.72	2.39E-01	-1.73E-05	-1.73E-02	0.00E+00	2.39E-01	0.00E+00	10	...........	1505.12
	44770	1790.84	2.33E-01	-1.70E-05	-1.70E-02	0.00E+00	2.33E-01	0.00E+00	10	...........	1505.12
	44773	1790.96	2.27E-01	-1.68E-05	-1.68E-02	0.00E+00	2.27E-01	0.00E+00	10	...........	1505.12
	44776	1791.08	2.21E-01	-1.66E-05	-1.66E-02	0.00E+00	2.21E-01	0.00E+00	10	...........	1505.58
	44779	1791.2	2.15E-01	-1.66E-05	-1.66E-02	0.00E+00	2.15E-01	0.00E+00	10	...........	1505.58
	44782	1791.32	2.09E-01	-1.66E-05	-1.66E-02	0.00E+00	2.09E-01	0.00E+00	10	...........	1505.58
	44785	1791.44	2.03E-01	-1.66E-05	-1.66E-02	0.00E+00	2.03E-01	0.00E+00	10	...........	1505.58
	44788	1791.56	1.97E-01	-1.65E-05	-1.65E-02	0.00E+00	1.97E-01	0.00E+00	10	...........	1505.58
	44791	1791.68	1.91E-01	-1.66E-05	-1.66E-02	0.00E+00	1.91E-01	0.00E+00	10	...........	1505.58
	44794	1791.8	1.85E-01	-1.70E-05	-1.70E-02	0.00E+00	1.85E-01	0.00E+00	10	...........	1505.58
	44797	1791.92	1.79E-01	-1.72E-05	-1.72E-02	0.00E+00	1.79E-01	0.00E+00	10	...........	1505.58
	44800	1792.04	1.73E-01	-1.76E-05	-1.76E-02	0.00E+00	1.73E-01	0.00E+00	10	...........	1505.31
	44803	1792.16	1.67E-01	-1.80E-05	-1.80E-02	0.00E+00	1.67E-01	0.00E+00	10	...........	1505.12
	44806	1792.28	1.61E-01	-1.88E-05	-1.88E-02	0.00E+00	1.61E-01	0.00E+00	10	...........	1505.12
	44809	1792.4	1.55E-01	-1.95E-05	-1.95E-02	0.00E+00	1.55E-01	0.00E+00	10	...........	1505.12
	44812	1792.52	1.49E-01	-2.07E-05	-2.07E-02	0.00E+00	1.49E-01	0.00E+00	10	...........	1505.12
	44815	1792.64	1.43E-01	-2.19E-05	-2.19E-02	0.00E+00	1.43E-01	0.00E+00	10	...........	1505.12
	44818	1792.76	1.37E-01	-2.32E-05	-2.32E-02	0.00E+00	1.37E-01	0.00E+00	10	...........	1505.12
	44821	1792.88	1.31E-01	-2.48E-05	-2.48E-02	0.00E+00	1.31E-01	0.00E+00	10	...........	1505.12
	44824	1793	1.25E-01	-2.64E-05	-2.64E-02	0.00E+00	1.25E-01	0.00E+00	10	...........	1505.12
	44827	1793.12	1.19E-01	-2.82E-05	-2.82E-02	0.00E+00	1.19E-01	0.00E+00	10	...........	1505.58
	44830	1793.24	1.13E-01	-2.99E-05	-2.99E-02	0.00E+00	1.13E-01	0.00E+00	10	...........	1505.58
	44833	1793.36	1.07E-01	-3.24E-05	-3.24E-02	0.00E+00	1.07E-01	0.00E+00	10	...........	1505.58
	44836	1793.48	1.01E-01	-3.48E-05	-3.48E-02	0.00E+00	1.01E-01	0.00E+00	10	...........	1505.58
	44839	1793.6	9.50E-02	-3.72E-05	-3.72E-02	0.00E+00	9.50E-02	0.00E+00	10	...........	1505.58
	44842	1793.72	8.90E-02	-3.97E-05	-3.97E-02	0.00E+00	8.90E-02	0.00E+00	10	...........	1505.58
	44845	1793.84	8.30E-02	-4.27E-05	-4.27E-02	0.00E+00	8.30E-02	0.00E+00	10	...........	1505.58
	44848	1793.96	7.70E-02	-4.68E-05	-4.68E-02	0.00E+00	7.70E-02	0.00E+00	10	...........	1505.58
	44851	1794.08	7.10E-02	-5.23E-05	-5.23E-02	0.00E+00	7.10E-02	0.00E+00	10	...........	1505.12
	44854	1794.2	6.50E-02	-5.85E-05	-5.85E-02	0.00E+00	6.50E-02	0.00E+00	10	...........	1505.12
	44857	1794.32	5.90E-02	-6.52E-05	-6.52E-02	0.00E+00	5.90E-02	0.00E+00	10	...........	1505.12
	44860	1794.44	5.30E-02	-7.22E-05	-7.22E-02	0.00E+00	5.30E-02	0.00E+00	10	...........	1505.12
	44863	1794.56	4.70E-02	-7.92E-05	-7.92E-02	0.00E+00	4.70E-02	0.00E+00	10	...........	1505.12
	44866	1794.68	4.10E-02	-8.60E-05	-8.60E-02	0.00E+00	4.10E-02	0.00E+00	10	...........	1505.12
	44869	1794.8	3.50E-02	-9.16E-05	-9.16E-02	0.00E+00	3.50E-02	0.00E+00	10	...........	1505.12
	44872	1794.92	2.90E-02	-9.58E-05	-9.58E-02	0.00E+00	2.90E-02	0.00E+00	10	...........	1505.12
	44875	1795.04	2.30E-02	-9.86E-05	-9.86E-02	0.00E+00	2.30E-02	0.00E+00	10	...........	1505.29
	44878	1795.16	1.70E-02	-1.00E-04	-1.00E-01	0.00E+00	1.70E-02	0.00E+00	10	...........	1505.4
	44881	1795.28	1.10E-02	-1.01E-04	-1.01E-01	0.00E+00	1.10E-02	0.00E+00	10	...........	1505.4
	44884	1795.4	5.01E-03	-1.01E-04	-1.01E-01	0.00E+00	4.99E-03	0.00E+00	10	...........	1505.4
	44887	1795.52	-9.84E-04	-1.00E-04	-1.00E-01	0.00E+00	-1.01E-03	0.00E+00	10	...........	1505.4
	44890	1795.64	-6.99E-03	-9.94E-05	-9.94E-02	0.00E+00	-7.00E-03	0.00E+00	10	...........	1505.4
	44893	1795.76	-1.30E-02	-9.87E-05	-9.87E-02	0.00E+00	-1.30E-02	0.00E+00	10	...........	1505.4
	44896	1795.88	-1.90E-02	-9.83E-05	-9.83E-02	0.00E+00	-1.90E-02	0.00E+00	10	...........	1505.4
	44899	1796	-2.50E-02	-9.81E-05	-9.81E-02	0.00E+00	-2.50E-02	0.00E+00	10	...........	1505.4
	44902	1796.12	-3.10E-02	-9.83E-05	-9.83E-02	0.00E+00	-3.10E-02	0.00E+00	10	...........	1505.12
	44905	1796.24	-3.70E-02	-9.92E-05	-9.92E-02	0.00E+00	-3.70E-02	0.00E+00	10	...........	1505.12
	44908	1796.36	-4.30E-02	-1.01E-04	-1.01E-01	0.00E+00	-4.30E-02	0.00E+00	10	...........	1505.12
	44911	1796.48	-4.90E-02	-1.04E-04	-1.04E-01	0.00E+00	-4.90E-02	0.00E+00	10	...........	1505.12
	44914	1796.6	-5.50E-02	-1.08E-04	-1.08E-01	0.00E+00	-5.50E-02	0.00E+00	10	...........	1505.12
	44917	1796.72	-6.10E-02	-1.14E-04	-1.14E-01	0.00E+00	-6.10E-02	0.00E+00	10	...........	1505.12
	44920	1796.84	-6.70E-02	-1.22E-04	-1.22E-01	0.00E+00	-6.70E-02	0.00E+00	10	...........	1505.12
	44923	1796.96	-7.30E-02	-1.33E-04	-1.33E-01	0.00E+00	-7.30E-02	0.00E+00	10	...........	1505.12
	44926	1797.08	-7.90E-02	-1.46E-04	-1.46E-01	0.00E+00	-7.90E-02	0.00E+00	10	...........	1505.49
	44929	1797.2	-8.50E-02	-1.62E-04	-1.62E-01	0.00E+00	-8.50E-02	0.00E+00	10	...........	1505.49
	44932	1797.32	-9.10E-02	-1.79E-04	-1.79E-01	0.00E+00	-9.10E-02	0.00E+00	10	...........	1505.49
	44935	1797.44	-9.70E-02	-1.95E-04	-1.95E-01	0.00E+00	-9.70E-02	0.00E+00	10	...........	1505.49
	44938	1797.56	-1.03E-01	-2.07E-04	-2.07E-01	0.00E+00	-1.03E-01	0.00E+00	10	...........	1505.49
	44941	1797.68	-1.09E-01	-2.13E-04	-2.13E-01	0.00E+00	-1.09E-01	0.00E+00	10	...........	1505.49
	44944	1797.8	-1.15E-01	-2.14E-04	-2.14E-01	0.00E+00	-1.15E-01	0.00E+00	10	...........	1505.49
	44947	1797.92	-1.21E-01	-2.09E-04	-2.09E-01	0.00E+00	-1.21E-01	0.00E+00	10	...........	1505.49
	44950	1798.04	-1.27E-01	-2.02E-04	-2.02E-01	0.00E+00	-1.27E-01	0.00E+00	10	...........	1505.25
	44953	1798.16	-1.33E-01	-1.96E-04	-1.96E-01	0.00E+00	-1.33E-01	0.00E+00	10	...........	1505.12
	44956	1798.28	-1.39E-01	-1.92E-04	-1.92E-01	0.00E+00	-1.39E-01	0.00E+00	10	...........	1505.12
	44959	1798.4	-1.45E-01	-1.93E-04	-1.93E-01	0.00E+00	-1.45E-01	0.00E+00	10	...........	1505.12
	44962	1798.52	-1.51E-01	-1.99E-04	-1.99E-01	0.00E+00	-1.51E-01	0.00E+00	10	...........	1505.12
	44965	1798.64	-1.57E-01	-2.13E-04	-2.13E-01	0.00E+00	-1.57E-01	0.00E+00	10	...........	1505.12
	44968	1798.76	-1.63E-01	-2.38E-04	-2.38E-01	0.00E+00	-1.63E-01	0.00E+00	10	...........	1505.12
	44971	1798.88	-1.69E-01	-2.78E-04	-2.78E-01	0.00E+00	-1.69E-01	0.00E+00	10	...........	1505.12
	44974	1799	-1.75E-01	-3.37E-04	-3.37E-01	0.00E+00	-1.75E-01	0.00E+00	10	...........	1505.12
	44977	1799.12	-1.81E-01	-4.22E-04	-4.22E-01	0.00E+00	-1.81E-01	0.00E+00	10	...........	1505.58
	44980	1799.24	-1.87E-01	-5.26E-04	-5.26E-01	0.00E+00	-1.87E-01	0.00E+00	10	...........	1505.58
	44983	1799.36	-1.93E-01	-6.39E-04	-6.39E-01	0.00E+00	-1.93E-01	0.00E+00	10	...........	1505.58
	44986	1799.48	-1.99E-01	-7.53E-04	-7.53E-01	0.00E+00	-1.99E-01	0.00E+00	10	...........	1505.58
	44989	1799.6	-2.05E-01	-8.51E-04	-8.51E-01	0.00E+00	-2.05E-01	0.00E+00	10	...........	1505.58
	44992	1799.72	-2.11E-01	-9.08E-04	-9.08E-01	0.00E+00	-2.11E-01	0.00E+00	10	...........	1505.58
	44995	1799.84	-2.17E-01	-9.06E-04	-9.06E-01	0.00E+00	-2.17E-01	0.00E+00	10	...........	1505.58
	44998	1799.96	-2.23E-01	-8.52E-04	-8.52E-01	0.00E+00	-2.23E-01	0.00E+00	10	...........	1505.58
	45000	1800.04	-2.27E-01	-8.13E-04	-8.13E-01	0.00E+00	-2.27E-01	0.00E+00	10	...........	1505.28
CURVE31	TABLE				0.00E+00
	Pt	T	Vf	Im	#VALUE!	Vu	Sig	Ach	IERange	Over	Temp
	#	s	V vs. Ref.	A	#VALUE!	V	V	V	#	bits	deg C
	45001	1800.08	-2.25E-01	-6.52E-04	-6.52E-01	0.00E+00	-2.25E-01	0.00E+00	10	...........	1505.12
	45002	1800.12	-2.23E-01	-5.21E-04	-5.21E-01	0.00E+00	-2.23E-01	0.00E+00	10	...........	1505.12
	45003	1800.16	-2.21E-01	-4.12E-04	-4.12E-01	0.00E+00	-2.21E-01	0.00E+00	10	...........	1505.12
	45004	1800.2	-2.19E-01	-3.20E-04	-3.20E-01	0.00E+00	-2.19E-01	0.00E+00	10	...........	1505.12
	45005	1800.24	-2.17E-01	-2.41E-04	-2.41E-01	0.00E+00	-2.17E-01	0.00E+00	10	...........	1505.12
	45006	1800.28	-2.15E-01	-1.71E-04	-1.71E-01	0.00E+00	-2.15E-01	0.00E+00	10	...........	1505.12
	45007	1800.32	-2.13E-01	-1.10E-04	-1.10E-01	0.00E+00	-2.13E-01	0.00E+00	10	...........	1505.12
	45008	1800.36	-2.11E-01	-5.43E-05	-5.43E-02	0.00E+00	-2.11E-01	0.00E+00	10	...........	1505.12
	45009	1800.4	-2.09E-01	-4.05E-06	-4.05E-03	0.00E+00	-2.09E-01	0.00E+00	10	...........	1505.12
	45010	1800.44	-2.07E-01	4.04E-05	4.04E-02	0.00E+00	-2.07E-01	0.00E+00	10	...........	1505.12
	45011	1800.48	-2.05E-01	8.20E-05	8.20E-02	0.00E+00	-2.05E-01	0.00E+00	10	...........	1505.12
	45012	1800.52	-2.03E-01	1.19E-04	1.19E-01	0.00E+00	-2.03E-01	0.00E+00	10	...........	1505.12
	45013	1800.56	-2.01E-01	1.53E-04	1.53E-01	0.00E+00	-2.01E-01	0.00E+00	10	...........	1505.12
	45014	1800.6	-1.99E-01	1.86E-04	1.86E-01	0.00E+00	-1.99E-01	0.00E+00	10	...........	1505.12
	45015	1800.64	-1.97E-01	2.15E-04	2.15E-01	0.00E+00	-1.97E-01	0.00E+00	10	...........	1505.12
	45016	1800.68	-1.95E-01	2.43E-04	2.43E-01	0.00E+00	-1.95E-01	0.00E+00	10	...........	1505.12
	45017	1800.72	-1.93E-01	2.70E-04	2.70E-01	0.00E+00	-1.93E-01	0.00E+00	10	...........	1505.12
	45018	1800.76	-1.91E-01	2.95E-04	2.95E-01	0.00E+00	-1.91E-01	0.00E+00	10	...........	1505.12
	45019	1800.8	-1.89E-01	3.21E-04	3.21E-01	0.00E+00	-1.89E-01	0.00E+00	10	...........	1505.12
	45020	1800.84	-1.87E-01	3.45E-04	3.45E-01	0.00E+00	-1.87E-01	0.00E+00	10	...........	1505.12
	45021	1800.88	-1.85E-01	3.69E-04	3.69E-01	0.00E+00	-1.85E-01	0.00E+00	10	...........	1505.12
	45022	1800.92	-1.83E-01	3.94E-04	3.94E-01	0.00E+00	-1.83E-01	0.00E+00	10	...........	1505.12
	45023	1800.96	-1.81E-01	4.18E-04	4.18E-01	0.00E+00	-1.81E-01	0.00E+00	10	...........	1505.12
	45024	1801	-1.79E-01	4.43E-04	4.43E-01	0.00E+00	-1.79E-01	0.00E+00	10	...........	1505.12
	45025	1801.04	-1.77E-01	4.68E-04	4.68E-01	0.00E+00	-1.77E-01	0.00E+00	10	...........	1505.18
	45026	1801.08	-1.75E-01	4.94E-04	4.94E-01	0.00E+00	-1.75E-01	0.00E+00	10	...........	1505.21
	45027	1801.12	-1.73E-01	5.21E-04	5.21E-01	0.00E+00	-1.73E-01	0.00E+00	10	...........	1505.21
	45028	1801.16	-1.71E-01	5.48E-04	5.48E-01	0.00E+00	-1.71E-01	0.00E+00	10	...........	1505.21
	45029	1801.2	-1.69E-01	5.76E-04	5.76E-01	0.00E+00	-1.69E-01	0.00E+00	10	...........	1505.21
	45030	1801.24	-1.67E-01	6.05E-04	6.05E-01	0.00E+00	-1.67E-01	0.00E+00	10	...........	1505.21
	45031	1801.28	-1.65E-01	6.33E-04	6.33E-01	0.00E+00	-1.65E-01	0.00E+00	10	...........	1505.21
	45032	1801.32	-1.63E-01	6.62E-04	6.62E-01	0.00E+00	-1.63E-01	0.00E+00	10	...........	1505.21
	45033	1801.36	-1.61E-01	6.90E-04	6.90E-01	0.00E+00	-1.61E-01	0.00E+00	10	...........	1505.21
	45034	1801.4	-1.59E-01	7.16E-04	7.16E-01	0.00E+00	-1.59E-01	0.00E+00	10	...........	1505.21
	45035	1801.44	-1.57E-01	7.42E-04	7.42E-01	0.00E+00	-1.57E-01	0.00E+00	10	...........	1505.21
	45036	1801.48	-1.55E-01	7.65E-04	7.65E-01	0.00E+00	-1.55E-01	0.00E+00	10	...........	1505.21
	45037	1801.52	-1.53E-01	7.84E-04	7.84E-01	0.00E+00	-1.53E-01	0.00E+00	10	...........	1505.21
	45038	1801.56	-1.51E-01	7.99E-04	7.99E-01	0.00E+00	-1.51E-01	0.00E+00	10	...........	1505.21
	45039	1801.6	-1.49E-01	8.08E-04	8.08E-01	0.00E+00	-1.49E-01	0.00E+00	10	...........	1505.21
	45040	1801.64	-1.47E-01	8.09E-04	8.09E-01	0.00E+00	-1.47E-01	0.00E+00	10	...........	1505.21
	45041	1801.68	-1.45E-01	8.01E-04	8.01E-01	0.00E+00	-1.45E-01	0.00E+00	10	...........	1505.21
	45042	1801.72	-1.43E-01	7.80E-04	7.80E-01	0.00E+00	-1.43E-01	0.00E+00	10	...........	1505.21
	45043	1801.76	-1.41E-01	7.44E-04	7.44E-01	0.00E+00	-1.41E-01	0.00E+00	10	...........	1505.21
	45044	1801.8	-1.39E-01	6.88E-04	6.88E-01	0.00E+00	-1.39E-01	0.00E+00	10	...........	1505.21
	45045	1801.84	-1.37E-01	6.13E-04	6.13E-01	0.00E+00	-1.37E-01	0.00E+00	10	...........	1505.21
	45046	1801.88	-1.35E-01	5.33E-04	5.33E-01	0.00E+00	-1.35E-01	0.00E+00	10	...........	1505.21
	45047	1801.92	-1.33E-01	4.55E-04	4.55E-01	0.00E+00	-1.33E-01	0.00E+00	10	...........	1505.21
	45048	1801.96	-1.31E-01	3.90E-04	3.90E-01	0.00E+00	-1.31E-01	0.00E+00	10	...........	1505.21
	45049	1802	-1.29E-01	3.38E-04	3.38E-01	0.00E+00	-1.29E-01	0.00E+00	10	...........	1505.21
	45050	1802.04	-1.27E-01	2.99E-04	2.99E-01	0.00E+00	-1.27E-01	0.00E+00	10	...........	1505.15