File: data/Jesus_data/electroless_Pt_28%_NH4OH/CO_Removal.DTA
EXPLAIN
TAG	CV
TITLE	LABEL	Cyclic Voltammetry	Test Identifier
DATE	LABEL	7/17/2023	Date
TIME	LABEL	23:23:41	Time
NOTES	NOTES	1	Notes...

PSTAT	PSTAT	IFC1010-20234	Potentiostat
VINIT	POTEN	-1.27E-01	F	Initial E (V)
VLIMIT1	POTEN	7.74E-01	F	Scan Limit 1 (V)
VLIMIT2	POTEN	-2.27E-01	F	Scan Limit 2 (V)
VFINAL	POTEN	-1.27E-01	F	Final E (V)
SCANRATE	QUANT	5.00E+01	Scan Rate (mV/s)
STEPSIZE	QUANT	2.00E+00	Step Size (mV)
CYCLES	IQUANT	5	Cycles (#)
IMODE	SELECTOR	1	I/E Range Mode
IRANGE	QUANT	2.00E+00	Max Current (mA)
AREA	QUANT	1.00E+00	Sample Area (cm^2)
EQDELAY	QUANT	0.00E+00	Equil. Time (s)
IRCOMP	SELECTOR	2	IRComp
PFCOR	QUANT	3.36E+01	PF Corr. (ohm)
SAMPLINGMODE	SELECTOR	2	Sampling Mode
EOC	QUANT	0	Open Circuit (V)
ELECTRODETYPE	SELECTOR	0	Electrode Type
STRIPPING	TOGGLE	F	Used for Stripping
POLARITY	TOGGLE	F	Signal Polarity
SEQUENCER	TOGGLE	TRUE	Run as Sequence
PSTATMODEL	IQUANT	64	Pstat Model
PSTATSECTION	LABEL	IFC1010-20234	Pstat Section
PSTATSERIALNO	LABEL	20234	Pstat Serial Number
CTRLMODE	IQUANT	1	Control Mode
ELECTROMETER	IQUANT	0	RE=0 or CS=1
IESTAB	IQUANT	2	I/E Stability
CASPEED	IQUANT	4	Control Amp Speed
CONVENTION	IQUANT	1	Current Convention
ICHRANGE	IQUANT	2	Ich Range
ICHRANGEMODE	TOGGLE	F	Ich Auto Range
ICHOFFSETENABLE	TOGGLE	F	Ich Offset Enable
ICHOFFSET	QUANT	0	Ich Offset (V)
ICHFILTER	IQUANT	3	Ich Filter
VCHRANGE	IQUANT	2	Vch Range
VCHRANGEMODE	TOGGLE	F	Vch Auto Range
VCHOFFSETENABLE	TOGGLE	F	Vch Offset Enable
VCHOFFSET	QUANT	0	Vch Offset (V)
VCHFILTER	IQUANT	1	Vch Filter
IERANGELOWERLIMIT	IQUANT	4	I/E Range Lower Limit
IERANGEMODE	TOGGLE	F	I/E AutoRange
IERANGE	IQUANT	10	I/E Range
ACHSELECT	IQUANT	0	Ach Select
ACHRANGE	IQUANT	2	Ach Range
ACHOFFSETENABLE	TOGGLE	F	Ach Offset Enable
ACHOFFSET	QUANT	0	Ach Offset (V)
ACHFILTER	IQUANT	1	Ach Filter
SENSECABLEID	IQUANT	14	Sense Cable ID
PWRCABLEID	IQUANT	14	Power Cable ID
DCCALDATE	LABEL	7/15/2022	DC Calibration Date
ACCALDATE	LABEL	07-08-20	AC Calibration Date
FRAMEWORKVERSION	LABEL	7.8.2	Framework Version
INSTRUMENTVERSION	LABEL	4.4	Instrument Version
CURVE1	TABLE
	Pt	T	Vf	Im		Vu	Sig	Ach	IERange	Over	Temp
	#	s	V vs. Ref.	A		V	V	V	#	bits	deg C
	0	0.04	-1.27E-01	-2.98E-06	-2.98E+00	0.00E+00	-1.27E-01	0.00E+00	10	...........	1505.21
	2	0.12	-1.23E-01	1.52E-09	1.52E-03	0.00E+00	-1.23E-01	0.00E+00	10	...........	1505.21
	4	0.2	-1.19E-01	7.91E-07	7.91E-01	0.00E+00	-1.19E-01	0.00E+00	10	...........	1505.21
	6	0.28	-1.15E-01	1.31E-06	1.31E+00	0.00E+00	-1.15E-01	0.00E+00	10	...........	1505.21
	8	0.36	-1.11E-01	1.80E-06	1.80E+00	0.00E+00	-1.11E-01	0.00E+00	10	...........	1505.21
	10	0.44	-1.07E-01	2.20E-06	2.20E+00	0.00E+00	-1.07E-01	0.00E+00	10	...........	1505.21
	12	0.52	-1.03E-01	2.51E-06	2.51E+00	0.00E+00	-1.03E-01	0.00E+00	10	...........	1505.21
	14	0.6	-9.90E-02	2.76E-06	2.76E+00	0.00E+00	-9.90E-02	0.00E+00	10	...........	1505.21
	16	0.68	-9.50E-02	3.01E-06	3.01E+00	0.00E+00	-9.50E-02	0.00E+00	10	...........	1505.21
	18	0.76	-9.10E-02	3.19E-06	3.19E+00	0.00E+00	-9.10E-02	0.00E+00	10	...........	1505.21
	20	0.84	-8.70E-02	3.40E-06	3.40E+00	0.00E+00	-8.70E-02	0.00E+00	10	...........	1505.21
	22	0.92	-8.30E-02	3.59E-06	3.59E+00	0.00E+00	-8.30E-02	0.00E+00	10	...........	1506.24
	24	1	-7.90E-02	3.83E-06	3.83E+00	0.00E+00	-7.90E-02	0.00E+00	10	...........	1506.41
	26	1.08	-7.50E-02	3.93E-06	3.93E+00	0.00E+00	-7.50E-02	0.00E+00	10	...........	1506.41
	28	1.16	-7.10E-02	4.09E-06	4.09E+00	0.00E+00	-7.10E-02	0.00E+00	10	...........	1506.41
	30	1.24	-6.70E-02	4.23E-06	4.23E+00	0.00E+00	-6.70E-02	0.00E+00	10	...........	1506.41
	32	1.32	-6.30E-02	4.36E-06	4.36E+00	0.00E+00	-6.30E-02	0.00E+00	10	...........	1506.41
	34	1.4	-5.90E-02	4.49E-06	4.49E+00	0.00E+00	-5.90E-02	0.00E+00	10	...........	1506.41
	36	1.48	-5.50E-02	4.68E-06	4.68E+00	0.00E+00	-5.50E-02	0.00E+00	10	...........	1506.41
	38	1.56	-5.10E-02	4.75E-06	4.75E+00	0.00E+00	-5.10E-02	0.00E+00	10	...........	1506.41
	40	1.64	-4.70E-02	4.83E-06	4.83E+00	0.00E+00	-4.70E-02	0.00E+00	10	...........	1506.41
	42	1.72	-4.30E-02	4.97E-06	4.97E+00	0.00E+00	-4.30E-02	0.00E+00	10	...........	1506.41
	44	1.8	-3.90E-02	5.15E-06	5.15E+00	0.00E+00	-3.90E-02	0.00E+00	10	...........	1506.41
	46	1.88	-3.50E-02	5.23E-06	5.23E+00	0.00E+00	-3.50E-02	0.00E+00	10	...........	1506.41
	48	1.96	-3.10E-02	5.22E-06	5.22E+00	0.00E+00	-3.10E-02	0.00E+00	10	...........	1505.21
	50	2.04	-2.70E-02	5.33E-06	5.33E+00	0.00E+00	-2.70E-02	0.00E+00	10	...........	1505.21
	52	2.12	-2.30E-02	5.48E-06	5.48E+00	0.00E+00	-2.30E-02	0.00E+00	10	...........	1505.21
	54	2.2	-1.90E-02	5.52E-06	5.52E+00	0.00E+00	-1.90E-02	0.00E+00	10	...........	1505.21
	56	2.28	-1.50E-02	5.60E-06	5.60E+00	0.00E+00	-1.50E-02	0.00E+00	10	...........	1505.21
	58	2.36	-1.10E-02	5.63E-06	5.63E+00	0.00E+00	-1.10E-02	0.00E+00	10	...........	1505.21
	60	2.44	-6.99E-03	5.65E-06	5.65E+00	0.00E+00	-7.00E-03	0.00E+00	10	...........	1505.21
	62	2.52	-3.00E-03	5.75E-06	5.75E+00	0.00E+00	-3.00E-03	0.00E+00	10	...........	1505.21
	64	2.6	1.02E-03	5.83E-06	5.83E+00	0.00E+00	9.97E-04	0.00E+00	10	...........	1505.21
	66	2.68	5.01E-03	5.97E-06	5.97E+00	0.00E+00	5.00E-03	0.00E+00	10	...........	1505.21
	68	2.76	8.99E-03	6.01E-06	6.01E+00	0.00E+00	9.00E-03	0.00E+00	10	...........	1505.21
	70	2.84	1.30E-02	6.02E-06	6.02E+00	0.00E+00	1.30E-02	0.00E+00	10	...........	1505.21
	72	2.92	1.70E-02	6.17E-06	6.17E+00	0.00E+00	1.70E-02	0.00E+00	10	...........	1505.21
	74	3	2.10E-02	6.21E-06	6.21E+00	0.00E+00	2.10E-02	0.00E+00	10	...........	1505.21
	76	3.08	2.50E-02	6.20E-06	6.20E+00	0.00E+00	2.50E-02	0.00E+00	10	...........	1505.21
	78	3.16	2.90E-02	6.29E-06	6.29E+00	0.00E+00	2.90E-02	0.00E+00	10	...........	1505.21
	80	3.24	3.30E-02	6.35E-06	6.35E+00	0.00E+00	3.30E-02	0.00E+00	10	...........	1505.21
	82	3.32	3.70E-02	6.40E-06	6.40E+00	0.00E+00	3.70E-02	0.00E+00	10	...........	1505.21
	84	3.4	4.10E-02	6.52E-06	6.52E+00	0.00E+00	4.10E-02	0.00E+00	10	...........	1505.21
	86	3.48	4.50E-02	6.60E-06	6.60E+00	0.00E+00	4.50E-02	0.00E+00	10	...........	1505.21
	88	3.56	4.90E-02	6.66E-06	6.66E+00	0.00E+00	4.90E-02	0.00E+00	10	...........	1505.21
	90	3.64	5.30E-02	6.68E-06	6.68E+00	0.00E+00	5.30E-02	0.00E+00	10	...........	1505.21
	92	3.72	5.70E-02	6.79E-06	6.79E+00	0.00E+00	5.70E-02	0.00E+00	10	...........	1505.21
	94	3.8	6.10E-02	6.84E-06	6.84E+00	0.00E+00	6.10E-02	0.00E+00	10	...........	1505.21
	96	3.88	6.50E-02	6.90E-06	6.90E+00	0.00E+00	6.50E-02	0.00E+00	10	...........	1505.21
	98	3.96	6.90E-02	7.01E-06	7.01E+00	0.00E+00	6.90E-02	0.00E+00	10	...........	1505.12
	100	4.04	7.30E-02	7.09E-06	7.09E+00	0.00E+00	7.30E-02	0.00E+00	10	...........	1505.12
	102	4.12	7.70E-02	7.30E-06	7.30E+00	0.00E+00	7.70E-02	0.00E+00	10	...........	1505.12
	104	4.2	8.10E-02	7.46E-06	7.46E+00	0.00E+00	8.10E-02	0.00E+00	10	...........	1505.12
	106	4.28	8.50E-02	7.61E-06	7.61E+00	0.00E+00	8.50E-02	0.00E+00	10	...........	1505.12
	108	4.36	8.90E-02	7.73E-06	7.73E+00	0.00E+00	8.90E-02	0.00E+00	10	...........	1505.12
	110	4.44	9.30E-02	7.87E-06	7.87E+00	0.00E+00	9.30E-02	0.00E+00	10	...........	1505.12
	112	4.52	9.70E-02	8.03E-06	8.03E+00	0.00E+00	9.70E-02	0.00E+00	10	...........	1505.12
	114	4.6	1.01E-01	8.21E-06	8.21E+00	0.00E+00	1.01E-01	0.00E+00	10	...........	1505.12
	116	4.68	1.05E-01	8.47E-06	8.47E+00	0.00E+00	1.05E-01	0.00E+00	10	...........	1505.12
	118	4.76	1.09E-01	8.70E-06	8.70E+00	0.00E+00	1.09E-01	0.00E+00	10	...........	1505.12
	120	4.84	1.13E-01	8.94E-06	8.94E+00	0.00E+00	1.13E-01	0.00E+00	10	...........	1505.12
	122	4.92	1.17E-01	9.16E-06	9.16E+00	0.00E+00	1.17E-01	0.00E+00	10	...........	1505.53
	124	5	1.21E-01	9.44E-06	9.44E+00	0.00E+00	1.21E-01	0.00E+00	10	...........	1505.58
	126	5.08	1.25E-01	9.86E-06	9.86E+00	0.00E+00	1.25E-01	0.00E+00	10	...........	1505.58
	128	5.16	1.29E-01	1.03E-05	1.03E+01	0.00E+00	1.29E-01	0.00E+00	10	...........	1505.58
	130	5.24	1.33E-01	1.07E-05	1.07E+01	0.00E+00	1.33E-01	0.00E+00	10	...........	1505.58
	132	5.32	1.37E-01	1.11E-05	1.11E+01	0.00E+00	1.37E-01	0.00E+00	10	...........	1505.58
	134	5.4	1.41E-01	1.16E-05	1.16E+01	0.00E+00	1.41E-01	0.00E+00	10	...........	1505.58
	136	5.48	1.45E-01	1.21E-05	1.21E+01	0.00E+00	1.45E-01	0.00E+00	10	...........	1505.58
	138	5.56	1.49E-01	1.27E-05	1.27E+01	0.00E+00	1.49E-01	0.00E+00	10	...........	1505.58
	140	5.64	1.53E-01	1.33E-05	1.33E+01	0.00E+00	1.53E-01	0.00E+00	10	...........	1505.58
	142	5.72	1.57E-01	1.40E-05	1.40E+01	0.00E+00	1.57E-01	0.00E+00	10	...........	1505.58
	144	5.8	1.61E-01	1.47E-05	1.47E+01	0.00E+00	1.61E-01	0.00E+00	10	...........	1505.58
	146	5.88	1.65E-01	1.55E-05	1.55E+01	0.00E+00	1.65E-01	0.00E+00	10	...........	1505.58
	148	5.96	1.69E-01	1.64E-05	1.64E+01	0.00E+00	1.69E-01	0.00E+00	10	...........	1505.21
	150	6.04	1.73E-01	1.73E-05	1.73E+01	0.00E+00	1.73E-01	0.00E+00	10	...........	1505.21
	152	6.12	1.77E-01	1.84E-05	1.84E+01	0.00E+00	1.77E-01	0.00E+00	10	...........	1505.21
	154	6.2	1.81E-01	1.96E-05	1.96E+01	0.00E+00	1.81E-01	0.00E+00	10	...........	1505.21
	156	6.28	1.85E-01	2.08E-05	2.08E+01	0.00E+00	1.85E-01	0.00E+00	10	...........	1505.21
	158	6.36	1.89E-01	2.22E-05	2.22E+01	0.00E+00	1.89E-01	0.00E+00	10	...........	1505.21
	160	6.44	1.93E-01	2.35E-05	2.35E+01	0.00E+00	1.93E-01	0.00E+00	10	...........	1505.21
	162	6.52	1.97E-01	2.51E-05	2.51E+01	0.00E+00	1.97E-01	0.00E+00	10	...........	1505.21
	164	6.6	2.01E-01	2.67E-05	2.67E+01	0.00E+00	2.01E-01	0.00E+00	10	...........	1505.21
	166	6.68	2.05E-01	2.85E-05	2.85E+01	0.00E+00	2.05E-01	0.00E+00	10	...........	1505.21
	168	6.76	2.09E-01	3.02E-05	3.02E+01	0.00E+00	2.09E-01	0.00E+00	10	...........	1505.21
	170	6.84	2.13E-01	3.22E-05	3.22E+01	0.00E+00	2.13E-01	0.00E+00	10	...........	1505.21
	172	6.92	2.17E-01	3.43E-05	3.43E+01	0.00E+00	2.17E-01	0.00E+00	10	...........	1505.21
	174	7	2.21E-01	3.65E-05	3.65E+01	0.00E+00	2.21E-01	0.00E+00	10	...........	1505.21
	176	7.08	2.25E-01	3.88E-05	3.88E+01	0.00E+00	2.25E-01	0.00E+00	10	...........	1505.21
	178	7.16	2.29E-01	4.13E-05	4.13E+01	0.00E+00	2.29E-01	0.00E+00	10	...........	1505.21
	180	7.24	2.33E-01	4.38E-05	4.38E+01	0.00E+00	2.33E-01	0.00E+00	10	...........	1505.21
	182	7.32	2.37E-01	4.63E-05	4.63E+01	0.00E+00	2.37E-01	0.00E+00	10	...........	1505.21
	184	7.4	2.41E-01	4.88E-05	4.88E+01	0.00E+00	2.41E-01	0.00E+00	10	...........	1505.21
	186	7.48	2.45E-01	5.13E-05	5.13E+01	0.00E+00	2.45E-01	0.00E+00	10	...........	1505.21
	188	7.56	2.49E-01	5.38E-05	5.38E+01	0.00E+00	2.49E-01	0.00E+00	10	...........	1505.21
	190	7.64	2.53E-01	5.62E-05	5.62E+01	0.00E+00	2.53E-01	0.00E+00	10	...........	1505.21
	192	7.72	2.57E-01	5.84E-05	5.84E+01	0.00E+00	2.57E-01	0.00E+00	10	...........	1505.21
	194	7.8	2.61E-01	6.03E-05	6.03E+01	0.00E+00	2.61E-01	0.00E+00	10	...........	1505.21
	196	7.88	2.65E-01	6.21E-05	6.21E+01	0.00E+00	2.65E-01	0.00E+00	10	...........	1505.21
	198	7.96	2.69E-01	6.36E-05	6.36E+01	0.00E+00	2.69E-01	0.00E+00	10	...........	1505.12
	200	8.04	2.73E-01	6.46E-05	6.46E+01	0.00E+00	2.73E-01	0.00E+00	10	...........	1505.12
	202	8.12	2.77E-01	6.54E-05	6.54E+01	0.00E+00	2.77E-01	0.00E+00	10	...........	1505.12
	204	8.2	2.81E-01	6.58E-05	6.58E+01	0.00E+00	2.81E-01	0.00E+00	10	...........	1505.12
	206	8.28	2.85E-01	6.59E-05	6.59E+01	0.00E+00	2.85E-01	0.00E+00	10	...........	1505.12
	208	8.36	2.89E-01	6.56E-05	6.56E+01	0.00E+00	2.89E-01	0.00E+00	10	...........	1505.12
	210	8.44	2.93E-01	6.50E-05	6.50E+01	0.00E+00	2.93E-01	0.00E+00	10	...........	1505.12
	212	8.52	2.97E-01	6.43E-05	6.43E+01	0.00E+00	2.97E-01	0.00E+00	10	...........	1505.12
	214	8.6	3.01E-01	6.33E-05	6.33E+01	0.00E+00	3.01E-01	0.00E+00	10	...........	1505.12
	216	8.68	3.05E-01	6.22E-05	6.22E+01	0.00E+00	3.05E-01	0.00E+00	10	...........	1505.12
	218	8.76	3.09E-01	6.08E-05	6.08E+01	0.00E+00	3.09E-01	0.00E+00	10	...........	1505.12
	220	8.84	3.13E-01	5.94E-05	5.94E+01	0.00E+00	3.13E-01	0.00E+00	10	...........	1505.12
	222	8.92	3.17E-01	5.79E-05	5.79E+01	0.00E+00	3.17E-01	0.00E+00	10	...........	1505.12
	224	9	3.21E-01	5.65E-05	5.65E+01	0.00E+00	3.21E-01	0.00E+00	10	...........	1505.12
	226	9.08	3.25E-01	5.51E-05	5.51E+01	0.00E+00	3.25E-01	0.00E+00	10	...........	1505.12
	228	9.16	3.29E-01	5.37E-05	5.37E+01	0.00E+00	3.29E-01	0.00E+00	10	...........	1505.12
	230	9.24	3.33E-01	5.24E-05	5.24E+01	0.00E+00	3.33E-01	0.00E+00	10	...........	1505.12
	232	9.32	3.37E-01	5.10E-05	5.10E+01	0.00E+00	3.37E-01	0.00E+00	10	...........	1505.12
	234	9.4	3.41E-01	4.98E-05	4.98E+01	0.00E+00	3.41E-01	0.00E+00	10	...........	1505.12
	236	9.48	3.45E-01	4.87E-05	4.87E+01	0.00E+00	3.45E-01	0.00E+00	10	...........	1505.12
	238	9.56	3.49E-01	4.78E-05	4.78E+01	0.00E+00	3.49E-01	0.00E+00	10	...........	1505.12
	240	9.64	3.53E-01	4.68E-05	4.68E+01	0.00E+00	3.53E-01	0.00E+00	10	...........	1505.12
	242	9.72	3.57E-01	4.60E-05	4.60E+01	0.00E+00	3.57E-01	0.00E+00	10	...........	1505.12
	244	9.8	3.61E-01	4.54E-05	4.54E+01	0.00E+00	3.61E-01	0.00E+00	10	...........	1505.12
	246	9.88	3.65E-01	4.50E-05	4.50E+01	0.00E+00	3.65E-01	0.00E+00	10	...........	1505.12
	248	9.96	3.69E-01	4.46E-05	4.46E+01	0.00E+00	3.69E-01	0.00E+00	10	...........	1505.12
	250	10.04	3.73E-01	4.43E-05	4.43E+01	0.00E+00	3.73E-01	0.00E+00	10	...........	1505.12
	252	10.12	3.77E-01	4.41E-05	4.41E+01	0.00E+00	3.77E-01	0.00E+00	10	...........	1505.12
	254	10.2	3.81E-01	4.42E-05	4.42E+01	0.00E+00	3.81E-01	0.00E+00	10	...........	1505.12
	256	10.28	3.85E-01	4.44E-05	4.44E+01	0.00E+00	3.85E-01	0.00E+00	10	...........	1505.12
	258	10.36	3.89E-01	4.48E-05	4.48E+01	0.00E+00	3.89E-01	0.00E+00	10	...........	1505.12
	260	10.44	3.93E-01	4.54E-05	4.54E+01	0.00E+00	3.93E-01	0.00E+00	10	...........	1505.12
	262	10.52	3.97E-01	4.60E-05	4.60E+01	0.00E+00	3.97E-01	0.00E+00	10	...........	1505.12
	264	10.6	4.01E-01	4.68E-05	4.68E+01	0.00E+00	4.01E-01	0.00E+00	10	...........	1505.12
	266	10.68	4.05E-01	4.78E-05	4.78E+01	0.00E+00	4.05E-01	0.00E+00	10	...........	1505.12
	268	10.76	4.09E-01	4.89E-05	4.89E+01	0.00E+00	4.09E-01	0.00E+00	10	...........	1505.12
	270	10.84	4.13E-01	5.02E-05	5.02E+01	0.00E+00	4.13E-01	0.00E+00	10	...........	1505.12
	272	10.92	4.17E-01	5.17E-05	5.17E+01	0.00E+00	4.17E-01	0.00E+00	10	...........	1505.3
	274	11	4.21E-01	5.36E-05	5.36E+01	0.00E+00	4.21E-01	0.00E+00	10	...........	1505.3
	276	11.08	4.25E-01	5.58E-05	5.58E+01	0.00E+00	4.25E-01	0.00E+00	10	...........	1505.3
	278	11.16	4.29E-01	5.81E-05	5.81E+01	0.00E+00	4.29E-01	0.00E+00	10	...........	1505.3
	280	11.24	4.33E-01	6.09E-05	6.09E+01	0.00E+00	4.33E-01	0.00E+00	10	...........	1505.3
	282	11.32	4.37E-01	6.42E-05	6.42E+01	0.00E+00	4.37E-01	0.00E+00	10	...........	1505.3
	284	11.4	4.41E-01	6.79E-05	6.79E+01	0.00E+00	4.41E-01	0.00E+00	10	...........	1505.3
	286	11.48	4.45E-01	7.22E-05	7.22E+01	0.00E+00	4.45E-01	0.00E+00	10	...........	1505.3
	288	11.56	4.49E-01	7.72E-05	7.72E+01	0.00E+00	4.49E-01	0.00E+00	10	...........	1505.3
	290	11.64	4.53E-01	8.28E-05	8.28E+01	0.00E+00	4.53E-01	0.00E+00	10	...........	1505.3
	292	11.72	4.57E-01	8.93E-05	8.93E+01	0.00E+00	4.57E-01	0.00E+00	10	...........	1505.3
	294	11.8	4.61E-01	9.66E-05	9.66E+01	0.00E+00	4.61E-01	0.00E+00	10	...........	1505.3
	296	11.88	4.65E-01	1.05E-04	1.05E+02	0.00E+00	4.65E-01	0.00E+00	10	...........	1505.3
	298	11.96	4.69E-01	1.14E-04	1.14E+02	0.00E+00	4.69E-01	0.00E+00	10	...........	1505.21
	300	12.04	4.73E-01	1.24E-04	1.24E+02	0.00E+00	4.73E-01	0.00E+00	10	...........	1505.21
	302	12.12	4.77E-01	1.35E-04	1.35E+02	0.00E+00	4.77E-01	0.00E+00	10	...........	1505.21
	304	12.2	4.81E-01	1.48E-04	1.48E+02	0.00E+00	4.81E-01	0.00E+00	10	...........	1505.21
	306	12.28	4.85E-01	1.61E-04	1.61E+02	0.00E+00	4.85E-01	0.00E+00	10	...........	1505.21
	308	12.36	4.89E-01	1.74E-04	1.74E+02	0.00E+00	4.89E-01	0.00E+00	10	...........	1505.21
	310	12.44	4.93E-01	1.88E-04	1.88E+02	0.00E+00	4.93E-01	0.00E+00	10	...........	1505.21
	312	12.52	4.97E-01	2.02E-04	2.02E+02	0.00E+00	4.97E-01	0.00E+00	10	...........	1505.21
	314	12.6	5.01E-01	2.16E-04	2.16E+02	0.00E+00	5.01E-01	0.00E+00	10	...........	1505.21
	316	12.68	5.05E-01	2.29E-04	2.29E+02	0.00E+00	5.05E-01	0.00E+00	10	...........	1505.21
	318	12.76	5.09E-01	2.41E-04	2.41E+02	0.00E+00	5.09E-01	0.00E+00	10	...........	1505.21
	320	12.84	5.13E-01	2.52E-04	2.52E+02	0.00E+00	5.13E-01	0.00E+00	10	...........	1505.21
	322	12.92	5.17E-01	2.60E-04	2.60E+02	0.00E+00	5.17E-01	0.00E+00	10	...........	1505.39
	324	13	5.21E-01	2.65E-04	2.65E+02	0.00E+00	5.21E-01	0.00E+00	10	...........	1505.4
	326	13.08	5.25E-01	2.68E-04	2.68E+02	0.00E+00	5.25E-01	0.00E+00	10	...........	1505.4
	328	13.16	5.29E-01	2.68E-04	2.68E+02	0.00E+00	5.29E-01	0.00E+00	10	...........	1505.4
	330	13.24	5.33E-01	2.64E-04	2.64E+02	0.00E+00	5.33E-01	0.00E+00	10	...........	1505.4
	332	13.32	5.37E-01	2.58E-04	2.58E+02	0.00E+00	5.37E-01	0.00E+00	10	...........	1505.4
	334	13.4	5.41E-01	2.50E-04	2.50E+02	0.00E+00	5.41E-01	0.00E+00	10	...........	1505.4
	336	13.48	5.45E-01	2.39E-04	2.39E+02	0.00E+00	5.45E-01	0.00E+00	10	...........	1505.4
	338	13.56	5.49E-01	2.28E-04	2.28E+02	0.00E+00	5.49E-01	0.00E+00	10	...........	1505.4
	340	13.64	5.53E-01	2.16E-04	2.16E+02	0.00E+00	5.53E-01	0.00E+00	10	...........	1505.4
	342	13.72	5.57E-01	2.04E-04	2.04E+02	0.00E+00	5.57E-01	0.00E+00	10	...........	1505.4
	344	13.8	5.61E-01	1.94E-04	1.94E+02	0.00E+00	5.61E-01	0.00E+00	10	...........	1505.4
	346	13.88	5.65E-01	1.86E-04	1.86E+02	0.00E+00	5.65E-01	0.00E+00	10	...........	1505.4
	348	13.96	5.69E-01	1.80E-04	1.80E+02	0.00E+00	5.69E-01	0.00E+00	10	...........	1505.21
	350	14.04	5.73E-01	1.76E-04	1.76E+02	0.00E+00	5.73E-01	0.00E+00	10	...........	1505.21
	352	14.12	5.77E-01	1.75E-04	1.75E+02	0.00E+00	5.77E-01	0.00E+00	10	...........	1505.21
	354	14.2	5.81E-01	1.74E-04	1.74E+02	0.00E+00	5.81E-01	0.00E+00	10	...........	1505.21
	356	14.28	5.85E-01	1.72E-04	1.72E+02	0.00E+00	5.85E-01	0.00E+00	10	...........	1505.21
	358	14.36	5.89E-01	1.67E-04	1.67E+02	0.00E+00	5.89E-01	0.00E+00	10	...........	1505.21
	360	14.44	5.93E-01	1.60E-04	1.60E+02	0.00E+00	5.93E-01	0.00E+00	10	...........	1505.21
	362	14.52	5.97E-01	1.51E-04	1.51E+02	0.00E+00	5.97E-01	0.00E+00	10	...........	1505.21
	364	14.6	6.01E-01	1.41E-04	1.41E+02	0.00E+00	6.01E-01	0.00E+00	10	...........	1505.21
	366	14.68	6.05E-01	1.30E-04	1.30E+02	0.00E+00	6.05E-01	0.00E+00	10	...........	1505.21
	368	14.76	6.09E-01	1.20E-04	1.20E+02	0.00E+00	6.09E-01	0.00E+00	10	...........	1505.21
	370	14.84	6.13E-01	1.10E-04	1.10E+02	0.00E+00	6.13E-01	0.00E+00	10	...........	1505.21
	372	14.92	6.17E-01	1.01E-04	1.01E+02	0.00E+00	6.17E-01	0.00E+00	10	...........	1505.48
	374	15	6.21E-01	9.36E-05	9.36E+01	0.00E+00	6.21E-01	0.00E+00	10	...........	1505.49
	376	15.08	6.25E-01	8.74E-05	8.74E+01	0.00E+00	6.25E-01	0.00E+00	10	...........	1505.49
	378	15.16	6.29E-01	8.26E-05	8.26E+01	0.00E+00	6.29E-01	0.00E+00	10	...........	1505.49
	380	15.24	6.33E-01	7.90E-05	7.90E+01	0.00E+00	6.33E-01	0.00E+00	10	...........	1505.49
	382	15.32	6.37E-01	7.65E-05	7.65E+01	0.00E+00	6.37E-01	0.00E+00	10	...........	1505.49
	384	15.4	6.41E-01	7.51E-05	7.51E+01	0.00E+00	6.41E-01	0.00E+00	10	...........	1505.49
	386	15.48	6.45E-01	7.44E-05	7.44E+01	0.00E+00	6.45E-01	0.00E+00	10	...........	1505.49
	388	15.56	6.49E-01	7.41E-05	7.41E+01	0.00E+00	6.49E-01	0.00E+00	10	...........	1505.49
	390	15.64	6.53E-01	7.43E-05	7.43E+01	0.00E+00	6.53E-01	0.00E+00	10	...........	1505.49
	392	15.72	6.57E-01	7.47E-05	7.47E+01	0.00E+00	6.57E-01	0.00E+00	10	...........	1505.49
	394	15.8	6.61E-01	7.55E-05	7.55E+01	0.00E+00	6.61E-01	0.00E+00	10	...........	1505.49
	396	15.88	6.65E-01	7.64E-05	7.64E+01	0.00E+00	6.65E-01	0.00E+00	10	...........	1505.49
	398	15.96	6.69E-01	7.75E-05	7.75E+01	0.00E+00	6.69E-01	0.00E+00	10	...........	1505.21
	400	16.04	6.73E-01	7.89E-05	7.89E+01	0.00E+00	6.73E-01	0.00E+00	10	...........	1505.21
	402	16.12	6.77E-01	8.08E-05	8.08E+01	0.00E+00	6.77E-01	0.00E+00	10	...........	1505.21
	404	16.2	6.81E-01	8.27E-05	8.27E+01	0.00E+00	6.81E-01	0.00E+00	10	...........	1505.21
	406	16.28	6.85E-01	8.37E-05	8.37E+01	0.00E+00	6.85E-01	0.00E+00	10	...........	1505.21
	408	16.36	6.89E-01	8.42E-05	8.42E+01	0.00E+00	6.89E-01	0.00E+00	10	...........	1505.21
	410	16.44	6.93E-01	8.46E-05	8.46E+01	0.00E+00	6.93E-01	0.00E+00	10	...........	1505.21
	412	16.52	6.97E-01	8.54E-05	8.54E+01	0.00E+00	6.97E-01	0.00E+00	10	...........	1505.21
	414	16.6	7.01E-01	8.66E-05	8.66E+01	0.00E+00	7.01E-01	0.00E+00	10	...........	1505.21
	416	16.68	7.05E-01	8.85E-05	8.85E+01	0.00E+00	7.05E-01	0.00E+00	10	...........	1505.21
	418	16.76	7.09E-01	9.02E-05	9.02E+01	0.00E+00	7.09E-01	0.00E+00	10	...........	1505.21
	420	16.84	7.13E-01	9.19E-05	9.19E+01	0.00E+00	7.13E-01	0.00E+00	10	...........	1505.21
	422	16.92	7.17E-01	9.31E-05	9.31E+01	0.00E+00	7.17E-01	0.00E+00	10	...........	1505.21
	424	17	7.21E-01	9.42E-05	9.42E+01	0.00E+00	7.21E-01	0.00E+00	10	...........	1505.21
	426	17.08	7.25E-01	9.51E-05	9.51E+01	0.00E+00	7.25E-01	0.00E+00	10	...........	1505.21
	428	17.16	7.29E-01	9.63E-05	9.63E+01	0.00E+00	7.29E-01	0.00E+00	10	...........	1505.21
	430	17.24	7.33E-01	9.74E-05	9.74E+01	0.00E+00	7.33E-01	0.00E+00	10	...........	1505.21
	432	17.32	7.37E-01	9.83E-05	9.83E+01	0.00E+00	7.37E-01	0.00E+00	10	...........	1505.21
	434	17.4	7.41E-01	9.94E-05	9.94E+01	0.00E+00	7.41E-01	0.00E+00	10	...........	1505.21
	436	17.48	7.45E-01	1.00E-04	1.00E+02	0.00E+00	7.45E-01	0.00E+00	10	...........	1505.21
	438	17.56	7.49E-01	1.02E-04	1.02E+02	0.00E+00	7.49E-01	0.00E+00	10	...........	1505.21
	440	17.64	7.53E-01	1.02E-04	1.02E+02	0.00E+00	7.53E-01	0.00E+00	10	...........	1505.21
	442	17.72	7.57E-01	1.03E-04	1.03E+02	0.00E+00	7.57E-01	0.00E+00	10	...........	1505.21
	444	17.8	7.61E-01	1.04E-04	1.04E+02	0.00E+00	7.61E-01	0.00E+00	10	...........	1505.21
	446	17.88	7.65E-01	1.05E-04	1.05E+02	0.00E+00	7.65E-01	0.00E+00	10	...........	1505.21
	448	17.96	7.69E-01	1.06E-04	1.06E+02	0.00E+00	7.69E-01	0.00E+00	10	...........	1505.21
	450	18.04	7.73E-01	1.07E-04	1.07E+02	0.00E+00	7.73E-01	0.00E+00	10	...........	1505.21
	452	18.12	7.69E-01	4.84E-05	4.84E+01	0.00E+00	7.69E-01	0.00E+00	10	...........	1505.21
	454	18.2	7.65E-01	3.00E-05	3.00E+01	0.00E+00	7.65E-01	0.00E+00	10	...........	1505.21
	456	18.28	7.61E-01	1.86E-05	1.86E+01	0.00E+00	7.61E-01	0.00E+00	10	...........	1505.21
	458	18.36	7.57E-01	1.09E-05	1.09E+01	0.00E+00	7.57E-01	0.00E+00	10	...........	1505.21
	460	18.44	7.53E-01	5.03E-06	5.03E+00	0.00E+00	7.53E-01	0.00E+00	10	...........	1505.21
	462	18.52	7.49E-01	5.52E-07	5.52E-01	0.00E+00	7.49E-01	0.00E+00	10	...........	1505.21
	464	18.6	7.45E-01	-2.92E-06	-2.92E+00	0.00E+00	7.45E-01	0.00E+00	10	...........	1505.21
	466	18.68	7.41E-01	-5.86E-06	-5.86E+00	0.00E+00	7.41E-01	0.00E+00	10	...........	1505.21
	468	18.76	7.37E-01	-8.40E-06	-8.40E+00	0.00E+00	7.37E-01	0.00E+00	10	...........	1505.21
	470	18.84	7.33E-01	-1.07E-05	-1.07E+01	0.00E+00	7.33E-01	0.00E+00	10	...........	1505.21
	472	18.92	7.29E-01	-1.28E-05	-1.28E+01	0.00E+00	7.29E-01	0.00E+00	10	...........	1505.21
	474	19	7.25E-01	-1.48E-05	-1.48E+01	0.00E+00	7.25E-01	0.00E+00	10	...........	1505.21
	476	19.08	7.21E-01	-1.64E-05	-1.64E+01	0.00E+00	7.21E-01	0.00E+00	10	...........	1505.21
	478	19.16	7.17E-01	-1.79E-05	-1.79E+01	0.00E+00	7.17E-01	0.00E+00	10	...........	1505.21
	480	19.24	7.13E-01	-1.94E-05	-1.94E+01	0.00E+00	7.13E-01	0.00E+00	10	...........	1505.21
	482	19.32	7.09E-01	-2.11E-05	-2.11E+01	0.00E+00	7.09E-01	0.00E+00	10	...........	1505.21
	484	19.4	7.05E-01	-2.26E-05	-2.26E+01	0.00E+00	7.05E-01	0.00E+00	10	...........	1505.21
	486	19.48	7.01E-01	-2.42E-05	-2.42E+01	0.00E+00	7.01E-01	0.00E+00	10	...........	1505.21
	488	19.56	6.97E-01	-2.56E-05	-2.56E+01	0.00E+00	6.97E-01	0.00E+00	10	...........	1505.21
	490	19.64	6.93E-01	-2.70E-05	-2.70E+01	0.00E+00	6.93E-01	0.00E+00	10	...........	1505.21
	492	19.72	6.89E-01	-2.83E-05	-2.83E+01	0.00E+00	6.89E-01	0.00E+00	10	...........	1505.21
	494	19.8	6.85E-01	-2.98E-05	-2.98E+01	0.00E+00	6.85E-01	0.00E+00	10	...........	1505.21
	496	19.88	6.81E-01	-3.12E-05	-3.12E+01	0.00E+00	6.81E-01	0.00E+00	10	...........	1505.21
	498	19.96	6.77E-01	-3.26E-05	-3.26E+01	0.00E+00	6.77E-01	0.00E+00	10	...........	1505.21
	500	20.04	6.73E-01	-3.39E-05	-3.39E+01	0.00E+00	6.73E-01	0.00E+00	10	...........	1505.21
	502	20.12	6.69E-01	-3.54E-05	-3.54E+01	0.00E+00	6.69E-01	0.00E+00	10	...........	1505.21
	504	20.2	6.65E-01	-3.66E-05	-3.66E+01	0.00E+00	6.65E-01	0.00E+00	10	...........	1505.21
	506	20.28	6.61E-01	-3.79E-05	-3.79E+01	0.00E+00	6.61E-01	0.00E+00	10	...........	1505.21
	508	20.36	6.57E-01	-3.92E-05	-3.92E+01	0.00E+00	6.57E-01	0.00E+00	10	...........	1505.21
	510	20.44	6.53E-01	-4.04E-05	-4.04E+01	0.00E+00	6.53E-01	0.00E+00	10	...........	1505.21
	512	20.52	6.49E-01	-4.15E-05	-4.15E+01	0.00E+00	6.49E-01	0.00E+00	10	...........	1505.21
	514	20.6	6.45E-01	-4.25E-05	-4.25E+01	0.00E+00	6.45E-01	0.00E+00	10	...........	1505.21
	516	20.68	6.41E-01	-4.34E-05	-4.34E+01	0.00E+00	6.41E-01	0.00E+00	10	...........	1505.21
	518	20.76	6.37E-01	-4.42E-05	-4.42E+01	0.00E+00	6.37E-01	0.00E+00	10	...........	1505.21
	520	20.84	6.33E-01	-4.50E-05	-4.50E+01	0.00E+00	6.33E-01	0.00E+00	10	...........	1505.21
	522	20.92	6.29E-01	-4.58E-05	-4.58E+01	0.00E+00	6.29E-01	0.00E+00	10	...........	1505.21
	524	21	6.25E-01	-4.64E-05	-4.64E+01	0.00E+00	6.25E-01	0.00E+00	10	...........	1505.21
	526	21.08	6.21E-01	-4.67E-05	-4.67E+01	0.00E+00	6.21E-01	0.00E+00	10	...........	1505.21
	528	21.16	6.17E-01	-4.70E-05	-4.70E+01	0.00E+00	6.17E-01	0.00E+00	10	...........	1505.21
	530	21.24	6.13E-01	-4.71E-05	-4.71E+01	0.00E+00	6.13E-01	0.00E+00	10	...........	1505.21
	532	21.32	6.09E-01	-4.73E-05	-4.73E+01	0.00E+00	6.09E-01	0.00E+00	10	...........	1505.21
	534	21.4	6.05E-01	-4.73E-05	-4.73E+01	0.00E+00	6.05E-01	0.00E+00	10	...........	1505.21
	536	21.48	6.01E-01	-4.73E-05	-4.73E+01	0.00E+00	6.01E-01	0.00E+00	10	...........	1505.21
	538	21.56	5.97E-01	-4.70E-05	-4.70E+01	0.00E+00	5.97E-01	0.00E+00	10	...........	1505.21
	540	21.64	5.93E-01	-4.68E-05	-4.68E+01	0.00E+00	5.93E-01	0.00E+00	10	...........	1505.21
	542	21.72	5.89E-01	-4.64E-05	-4.64E+01	0.00E+00	5.89E-01	0.00E+00	10	...........	1505.21
	544	21.8	5.85E-01	-4.57E-05	-4.57E+01	0.00E+00	5.85E-01	0.00E+00	10	...........	1505.21
	546	21.88	5.81E-01	-4.50E-05	-4.50E+01	0.00E+00	5.81E-01	0.00E+00	10	...........	1505.21
	548	21.96	5.77E-01	-4.42E-05	-4.42E+01	0.00E+00	5.77E-01	0.00E+00	10	...........	1505.21
	550	22.04	5.73E-01	-4.36E-05	-4.36E+01	0.00E+00	5.73E-01	0.00E+00	10	...........	1505.21
	552	22.12	5.69E-01	-4.29E-05	-4.29E+01	0.00E+00	5.69E-01	0.00E+00	10	...........	1505.21
	554	22.2	5.65E-01	-4.21E-05	-4.21E+01	0.00E+00	5.65E-01	0.00E+00	10	...........	1505.21
	556	22.28	5.61E-01	-4.13E-05	-4.13E+01	0.00E+00	5.61E-01	0.00E+00	10	...........	1505.21
	558	22.36	5.57E-01	-4.02E-05	-4.02E+01	0.00E+00	5.57E-01	0.00E+00	10	...........	1505.21
	560	22.44	5.53E-01	-3.92E-05	-3.92E+01	0.00E+00	5.53E-01	0.00E+00	10	...........	1505.21
	562	22.52	5.49E-01	-3.83E-05	-3.83E+01	0.00E+00	5.49E-01	0.00E+00	10	...........	1505.21
	564	22.6	5.45E-01	-3.74E-05	-3.74E+01	0.00E+00	5.45E-01	0.00E+00	10	...........	1505.21
	566	22.68	5.41E-01	-3.65E-05	-3.65E+01	0.00E+00	5.41E-01	0.00E+00	10	...........	1505.21
	568	22.76	5.37E-01	-3.54E-05	-3.54E+01	0.00E+00	5.37E-01	0.00E+00	10	...........	1505.21
	570	22.84	5.33E-01	-3.43E-05	-3.43E+01	0.00E+00	5.33E-01	0.00E+00	10	...........	1505.21
	572	22.92	5.29E-01	-3.33E-05	-3.33E+01	0.00E+00	5.29E-01	0.00E+00	10	...........	1505.21
	574	23	5.25E-01	-3.23E-05	-3.23E+01	0.00E+00	5.25E-01	0.00E+00	10	...........	1505.21
	576	23.08	5.21E-01	-3.13E-05	-3.13E+01	0.00E+00	5.21E-01	0.00E+00	10	...........	1505.21
	578	23.16	5.17E-01	-3.04E-05	-3.04E+01	0.00E+00	5.17E-01	0.00E+00	10	...........	1505.21
	580	23.24	5.13E-01	-2.95E-05	-2.95E+01	0.00E+00	5.13E-01	0.00E+00	10	...........	1505.21
	582	23.32	5.09E-01	-2.87E-05	-2.87E+01	0.00E+00	5.09E-01	0.00E+00	10	...........	1505.21
	584	23.4	5.05E-01	-2.78E-05	-2.78E+01	0.00E+00	5.05E-01	0.00E+00	10	...........	1505.21
	586	23.48	5.01E-01	-2.70E-05	-2.70E+01	0.00E+00	5.01E-01	0.00E+00	10	...........	1505.21
	588	23.56	4.97E-01	-2.61E-05	-2.61E+01	0.00E+00	4.97E-01	0.00E+00	10	...........	1505.21
	590	23.64	4.93E-01	-2.53E-05	-2.53E+01	0.00E+00	4.93E-01	0.00E+00	10	...........	1505.21
	592	23.72	4.89E-01	-2.45E-05	-2.45E+01	0.00E+00	4.89E-01	0.00E+00	10	...........	1505.21
	594	23.8	4.85E-01	-2.39E-05	-2.39E+01	0.00E+00	4.85E-01	0.00E+00	10	...........	1505.21
	596	23.88	4.81E-01	-2.31E-05	-2.31E+01	0.00E+00	4.81E-01	0.00E+00	10	...........	1505.23
	598	23.96	4.77E-01	-2.24E-05	-2.24E+01	0.00E+00	4.77E-01	0.00E+00	10	...........	1505.49
	600	24.04	4.73E-01	-2.17E-05	-2.17E+01	0.00E+00	4.73E-01	0.00E+00	10	...........	1505.49
	602	24.12	4.69E-01	-2.11E-05	-2.11E+01	0.00E+00	4.69E-01	0.00E+00	10	...........	1505.49
	604	24.2	4.65E-01	-2.06E-05	-2.06E+01	0.00E+00	4.65E-01	0.00E+00	10	...........	1505.49
	606	24.28	4.61E-01	-2.00E-05	-2.00E+01	0.00E+00	4.61E-01	0.00E+00	10	...........	1505.49
	608	24.36	4.57E-01	-1.95E-05	-1.95E+01	0.00E+00	4.57E-01	0.00E+00	10	...........	1505.49
	610	24.44	4.53E-01	-1.90E-05	-1.90E+01	0.00E+00	4.53E-01	0.00E+00	10	...........	1505.49
	612	24.52	4.49E-01	-1.86E-05	-1.86E+01	0.00E+00	4.49E-01	0.00E+00	10	...........	1505.49
	614	24.6	4.45E-01	-1.83E-05	-1.83E+01	0.00E+00	4.45E-01	0.00E+00	10	...........	1505.49
	616	24.68	4.41E-01	-1.80E-05	-1.80E+01	0.00E+00	4.41E-01	0.00E+00	10	...........	1505.49
	618	24.76	4.37E-01	-1.75E-05	-1.75E+01	0.00E+00	4.37E-01	0.00E+00	10	...........	1505.49
	620	24.84	4.33E-01	-1.71E-05	-1.71E+01	0.00E+00	4.33E-01	0.00E+00	10	...........	1505.49
	622	24.92	4.29E-01	-1.69E-05	-1.69E+01	0.00E+00	4.29E-01	0.00E+00	10	...........	1505.12
	624	25	4.25E-01	-1.67E-05	-1.67E+01	0.00E+00	4.25E-01	0.00E+00	10	...........	1505.12
	626	25.08	4.21E-01	-1.64E-05	-1.64E+01	0.00E+00	4.21E-01	0.00E+00	10	...........	1505.12
	628	25.16	4.17E-01	-1.61E-05	-1.61E+01	0.00E+00	4.17E-01	0.00E+00	10	...........	1505.12
	630	25.24	4.13E-01	-1.58E-05	-1.58E+01	0.00E+00	4.13E-01	0.00E+00	10	...........	1505.12
	632	25.32	4.09E-01	-1.55E-05	-1.55E+01	0.00E+00	4.09E-01	0.00E+00	10	...........	1505.12
	634	25.4	4.05E-01	-1.54E-05	-1.54E+01	0.00E+00	4.05E-01	0.00E+00	10	...........	1505.12
	636	25.48	4.01E-01	-1.53E-05	-1.53E+01	0.00E+00	4.01E-01	0.00E+00	10	...........	1505.12
	638	25.56	3.97E-01	-1.51E-05	-1.51E+01	0.00E+00	3.97E-01	0.00E+00	10	...........	1505.12
	640	25.64	3.93E-01	-1.49E-05	-1.49E+01	0.00E+00	3.93E-01	0.00E+00	10	...........	1505.12
	642	25.72	3.89E-01	-1.47E-05	-1.47E+01	0.00E+00	3.89E-01	0.00E+00	10	...........	1505.12
	644	25.8	3.85E-01	-1.45E-05	-1.45E+01	0.00E+00	3.85E-01	0.00E+00	10	...........	1505.12
	646	25.88	3.81E-01	-1.44E-05	-1.44E+01	0.00E+00	3.81E-01	0.00E+00	10	...........	1505.13
	648	25.96	3.77E-01	-1.42E-05	-1.42E+01	0.00E+00	3.77E-01	0.00E+00	10	...........	1505.3
	650	26.04	3.73E-01	-1.40E-05	-1.40E+01	0.00E+00	3.73E-01	0.00E+00	10	...........	1505.3
	652	26.12	3.69E-01	-1.39E-05	-1.39E+01	0.00E+00	3.69E-01	0.00E+00	10	...........	1505.3
	654	26.2	3.65E-01	-1.37E-05	-1.37E+01	0.00E+00	3.65E-01	0.00E+00	10	...........	1505.3
	656	26.28	3.61E-01	-1.36E-05	-1.36E+01	0.00E+00	3.61E-01	0.00E+00	10	...........	1505.3
	658	26.36	3.57E-01	-1.34E-05	-1.34E+01	0.00E+00	3.57E-01	0.00E+00	10	...........	1505.3
	660	26.44	3.53E-01	-1.32E-05	-1.32E+01	0.00E+00	3.53E-01	0.00E+00	10	...........	1505.3
	662	26.52	3.49E-01	-1.31E-05	-1.31E+01	0.00E+00	3.49E-01	0.00E+00	10	...........	1505.3
	664	26.6	3.45E-01	-1.30E-05	-1.30E+01	0.00E+00	3.45E-01	0.00E+00	10	...........	1505.3
	666	26.68	3.41E-01	-1.30E-05	-1.30E+01	0.00E+00	3.41E-01	0.00E+00	10	...........	1505.3
	668	26.76	3.37E-01	-1.29E-05	-1.29E+01	0.00E+00	3.37E-01	0.00E+00	10	...........	1505.3
	670	26.84	3.33E-01	-1.28E-05	-1.28E+01	0.00E+00	3.33E-01	0.00E+00	10	...........	1505.3
	672	26.92	3.29E-01	-1.27E-05	-1.27E+01	0.00E+00	3.29E-01	0.00E+00	10	...........	1505.12
	674	27	3.25E-01	-1.27E-05	-1.27E+01	0.00E+00	3.25E-01	0.00E+00	10	...........	1505.12
	676	27.08	3.21E-01	-1.27E-05	-1.27E+01	0.00E+00	3.21E-01	0.00E+00	10	...........	1505.12
	678	27.16	3.17E-01	-1.25E-05	-1.25E+01	0.00E+00	3.17E-01	0.00E+00	10	...........	1505.12
	680	27.24	3.13E-01	-1.24E-05	-1.24E+01	0.00E+00	3.13E-01	0.00E+00	10	...........	1505.12
	682	27.32	3.09E-01	-1.23E-05	-1.23E+01	0.00E+00	3.09E-01	0.00E+00	10	...........	1505.12
	684	27.4	3.05E-01	-1.25E-05	-1.25E+01	0.00E+00	3.05E-01	0.00E+00	10	...........	1505.12
	686	27.48	3.01E-01	-1.26E-05	-1.26E+01	0.00E+00	3.01E-01	0.00E+00	10	...........	1505.12
	688	27.56	2.97E-01	-1.25E-05	-1.25E+01	0.00E+00	2.97E-01	0.00E+00	10	...........	1505.12
	690	27.64	2.93E-01	-1.26E-05	-1.26E+01	0.00E+00	2.93E-01	0.00E+00	10	...........	1505.12
	692	27.72	2.89E-01	-1.22E-05	-1.22E+01	0.00E+00	2.89E-01	0.00E+00	10	...........	1505.12
	694	27.8	2.85E-01	-1.23E-05	-1.23E+01	0.00E+00	2.85E-01	0.00E+00	10	...........	1505.12
	696	27.88	2.81E-01	-1.24E-05	-1.24E+01	0.00E+00	2.81E-01	0.00E+00	10	...........	1505.14
	698	27.96	2.77E-01	-1.24E-05	-1.24E+01	0.00E+00	2.77E-01	0.00E+00	10	...........	1505.3
	700	28.04	2.73E-01	-1.23E-05	-1.23E+01	0.00E+00	2.73E-01	0.00E+00	10	...........	1505.3
	702	28.12	2.69E-01	-1.23E-05	-1.23E+01	0.00E+00	2.69E-01	0.00E+00	10	...........	1505.3
	704	28.2	2.65E-01	-1.24E-05	-1.24E+01	0.00E+00	2.65E-01	0.00E+00	10	...........	1505.3
	706	28.28	2.61E-01	-1.24E-05	-1.24E+01	0.00E+00	2.61E-01	0.00E+00	10	...........	1505.3
	708	28.36	2.57E-01	-1.23E-05	-1.23E+01	0.00E+00	2.57E-01	0.00E+00	10	...........	1505.3
	710	28.44	2.53E-01	-1.23E-05	-1.23E+01	0.00E+00	2.53E-01	0.00E+00	10	...........	1505.3
	712	28.52	2.49E-01	-1.23E-05	-1.23E+01	0.00E+00	2.49E-01	0.00E+00	10	...........	1505.3
	714	28.6	2.45E-01	-1.22E-05	-1.22E+01	0.00E+00	2.45E-01	0.00E+00	10	...........	1505.3
	716	28.68	2.41E-01	-1.23E-05	-1.23E+01	0.00E+00	2.41E-01	0.00E+00	10	...........	1505.3
	718	28.76	2.37E-01	-1.23E-05	-1.23E+01	0.00E+00	2.37E-01	0.00E+00	10	...........	1505.3
	720	28.84	2.33E-01	-1.23E-05	-1.23E+01	0.00E+00	2.33E-01	0.00E+00	10	...........	1505.3
	722	28.92	2.29E-01	-1.23E-05	-1.23E+01	0.00E+00	2.29E-01	0.00E+00	10	...........	1505.12
	724	29	2.25E-01	-1.24E-05	-1.24E+01	0.00E+00	2.25E-01	0.00E+00	10	...........	1505.12
	726	29.08	2.21E-01	-1.25E-05	-1.25E+01	0.00E+00	2.21E-01	0.00E+00	10	...........	1505.12
	728	29.16	2.17E-01	-1.26E-05	-1.26E+01	0.00E+00	2.17E-01	0.00E+00	10	...........	1505.12
	730	29.24	2.13E-01	-1.27E-05	-1.27E+01	0.00E+00	2.13E-01	0.00E+00	10	...........	1505.12
	732	29.32	2.09E-01	-1.29E-05	-1.29E+01	0.00E+00	2.09E-01	0.00E+00	10	...........	1505.12
	734	29.4	2.05E-01	-1.32E-05	-1.32E+01	0.00E+00	2.05E-01	0.00E+00	10	...........	1505.12
	736	29.48	2.01E-01	-1.33E-05	-1.33E+01	0.00E+00	2.01E-01	0.00E+00	10	...........	1505.12
	738	29.56	1.97E-01	-1.34E-05	-1.34E+01	0.00E+00	1.97E-01	0.00E+00	10	...........	1505.12
	740	29.64	1.93E-01	-1.36E-05	-1.36E+01	0.00E+00	1.93E-01	0.00E+00	10	...........	1505.12
	742	29.72	1.89E-01	-1.39E-05	-1.39E+01	0.00E+00	1.89E-01	0.00E+00	10	...........	1505.12
	744	29.8	1.85E-01	-1.43E-05	-1.43E+01	0.00E+00	1.85E-01	0.00E+00	10	...........	1505.12
	746	29.88	1.81E-01	-1.48E-05	-1.48E+01	0.00E+00	1.81E-01	0.00E+00	10	...........	1505.14
	748	29.96	1.77E-01	-1.54E-05	-1.54E+01	0.00E+00	1.77E-01	0.00E+00	10	...........	1505.3
	750	30.04	1.73E-01	-1.59E-05	-1.59E+01	0.00E+00	1.73E-01	0.00E+00	10	...........	1505.3
	752	30.12	1.69E-01	-1.66E-05	-1.66E+01	0.00E+00	1.69E-01	0.00E+00	10	...........	1505.3
	754	30.2	1.65E-01	-1.75E-05	-1.75E+01	0.00E+00	1.65E-01	0.00E+00	10	...........	1505.3
	756	30.28	1.61E-01	-1.85E-05	-1.85E+01	0.00E+00	1.61E-01	0.00E+00	10	...........	1505.3
	758	30.36	1.57E-01	-1.94E-05	-1.94E+01	0.00E+00	1.57E-01	0.00E+00	10	...........	1505.3
	760	30.44	1.53E-01	-2.04E-05	-2.04E+01	0.00E+00	1.53E-01	0.00E+00	10	...........	1505.3
	762	30.52	1.49E-01	-2.16E-05	-2.16E+01	0.00E+00	1.49E-01	0.00E+00	10	...........	1505.3
	764	30.6	1.45E-01	-2.30E-05	-2.30E+01	0.00E+00	1.45E-01	0.00E+00	10	...........	1505.3
	766	30.68	1.41E-01	-2.46E-05	-2.46E+01	0.00E+00	1.41E-01	0.00E+00	10	...........	1505.3
	768	30.76	1.37E-01	-2.63E-05	-2.63E+01	0.00E+00	1.37E-01	0.00E+00	10	...........	1505.3
	770	30.84	1.33E-01	-2.80E-05	-2.80E+01	0.00E+00	1.33E-01	0.00E+00	10	...........	1505.3
	772	30.92	1.29E-01	-2.98E-05	-2.98E+01	0.00E+00	1.29E-01	0.00E+00	10	...........	1505.12
	774	31	1.25E-01	-3.15E-05	-3.15E+01	0.00E+00	1.25E-01	0.00E+00	10	...........	1505.12
	776	31.08	1.21E-01	-3.32E-05	-3.32E+01	0.00E+00	1.21E-01	0.00E+00	10	...........	1505.12
	778	31.16	1.17E-01	-3.49E-05	-3.49E+01	0.00E+00	1.17E-01	0.00E+00	10	...........	1505.12
	780	31.24	1.13E-01	-3.64E-05	-3.64E+01	0.00E+00	1.13E-01	0.00E+00	10	...........	1505.12
	782	31.32	1.09E-01	-3.77E-05	-3.77E+01	0.00E+00	1.09E-01	0.00E+00	10	...........	1505.12
	784	31.4	1.05E-01	-3.90E-05	-3.90E+01	0.00E+00	1.05E-01	0.00E+00	10	...........	1505.12
	786	31.48	1.01E-01	-4.00E-05	-4.00E+01	0.00E+00	1.01E-01	0.00E+00	10	...........	1505.12
	788	31.56	9.70E-02	-4.10E-05	-4.10E+01	0.00E+00	9.70E-02	0.00E+00	10	...........	1505.12
	790	31.64	9.30E-02	-4.19E-05	-4.19E+01	0.00E+00	9.30E-02	0.00E+00	10	...........	1505.12
	792	31.72	8.90E-02	-4.33E-05	-4.33E+01	0.00E+00	8.90E-02	0.00E+00	10	...........	1505.12
	794	31.8	8.50E-02	-4.50E-05	-4.50E+01	0.00E+00	8.50E-02	0.00E+00	10	...........	1505.12
	796	31.88	8.10E-02	-4.74E-05	-4.74E+01	0.00E+00	8.10E-02	0.00E+00	10	...........	1505.13
	798	31.96	7.70E-02	-5.02E-05	-5.02E+01	0.00E+00	7.70E-02	0.00E+00	10	...........	1505.21
	800	32.04	7.30E-02	-5.33E-05	-5.33E+01	0.00E+00	7.30E-02	0.00E+00	10	...........	1505.21
	802	32.12	6.90E-02	-5.71E-05	-5.71E+01	0.00E+00	6.90E-02	0.00E+00	10	...........	1505.21
	804	32.2	6.50E-02	-6.13E-05	-6.13E+01	0.00E+00	6.50E-02	0.00E+00	10	...........	1505.21
	806	32.28	6.10E-02	-6.58E-05	-6.58E+01	0.00E+00	6.10E-02	0.00E+00	10	...........	1505.21
	808	32.36	5.70E-02	-7.01E-05	-7.01E+01	0.00E+00	5.70E-02	0.00E+00	10	...........	1505.21
	810	32.44	5.30E-02	-7.43E-05	-7.43E+01	0.00E+00	5.30E-02	0.00E+00	10	...........	1505.21
	812	32.52	4.90E-02	-7.81E-05	-7.81E+01	0.00E+00	4.90E-02	0.00E+00	10	...........	1505.21
	814	32.6	4.50E-02	-8.17E-05	-8.17E+01	0.00E+00	4.50E-02	0.00E+00	10	...........	1505.21
	816	32.68	4.10E-02	-8.50E-05	-8.50E+01	0.00E+00	4.10E-02	0.00E+00	10	...........	1505.21
	818	32.76	3.70E-02	-8.74E-05	-8.74E+01	0.00E+00	3.70E-02	0.00E+00	10	...........	1505.21
	820	32.84	3.30E-02	-8.88E-05	-8.88E+01	0.00E+00	3.30E-02	0.00E+00	10	...........	1505.21
	822	32.92	2.90E-02	-8.97E-05	-8.97E+01	0.00E+00	2.90E-02	0.00E+00	10	...........	1505.21
	824	33	2.50E-02	-8.97E-05	-8.97E+01	0.00E+00	2.50E-02	0.00E+00	10	...........	1505.21
	826	33.08	2.10E-02	-8.96E-05	-8.96E+01	0.00E+00	2.10E-02	0.00E+00	10	...........	1505.21
	828	33.16	1.70E-02	-8.93E-05	-8.93E+01	0.00E+00	1.70E-02	0.00E+00	10	...........	1505.21
	830	33.24	1.30E-02	-8.90E-05	-8.90E+01	0.00E+00	1.30E-02	0.00E+00	10	...........	1505.21
	832	33.32	8.99E-03	-8.85E-05	-8.85E+01	0.00E+00	9.00E-03	0.00E+00	10	...........	1505.21
	834	33.4	5.00E-03	-8.79E-05	-8.79E+01	0.00E+00	5.00E-03	0.00E+00	10	...........	1505.21
	836	33.48	1.01E-03	-8.75E-05	-8.75E+01	0.00E+00	9.97E-04	0.00E+00	10	...........	1505.21
	838	33.56	-3.01E-03	-8.65E-05	-8.65E+01	0.00E+00	-3.00E-03	0.00E+00	10	...........	1505.21
	840	33.64	-7.02E-03	-8.56E-05	-8.56E+01	0.00E+00	-7.00E-03	0.00E+00	10	...........	1505.21
	842	33.72	-1.10E-02	-8.51E-05	-8.51E+01	0.00E+00	-1.10E-02	0.00E+00	10	...........	1505.21
	844	33.8	-1.50E-02	-8.46E-05	-8.46E+01	0.00E+00	-1.50E-02	0.00E+00	10	...........	1505.21
	846	33.88	-1.90E-02	-8.44E-05	-8.44E+01	0.00E+00	-1.90E-02	0.00E+00	10	...........	1505.23
	848	33.96	-2.30E-02	-8.47E-05	-8.47E+01	0.00E+00	-2.30E-02	0.00E+00	10	...........	1505.3
	850	34.04	-2.70E-02	-8.50E-05	-8.50E+01	0.00E+00	-2.70E-02	0.00E+00	10	...........	1505.3
	852	34.12	-3.10E-02	-8.56E-05	-8.56E+01	0.00E+00	-3.10E-02	0.00E+00	10	...........	1505.3
	854	34.2	-3.50E-02	-8.63E-05	-8.63E+01	0.00E+00	-3.50E-02	0.00E+00	10	...........	1505.3
[...]
	4623	184.96	4.27E-01	-1.48E-05	-1.48E+01	0.00E+00	4.27E-01	0.00E+00	10	...........	1505.12
	4625	185.04	4.23E-01	-1.46E-05	-1.46E+01	0.00E+00	4.23E-01	0.00E+00	10	...........	1505.12
	4627	185.12	4.19E-01	-1.44E-05	-1.44E+01	0.00E+00	4.19E-01	0.00E+00	10	...........	1505.12
	4629	185.2	4.15E-01	-1.41E-05	-1.41E+01	0.00E+00	4.15E-01	0.00E+00	10	...........	1505.12
	4631	185.28	4.11E-01	-1.40E-05	-1.40E+01	0.00E+00	4.11E-01	0.00E+00	10	...........	1505.12
	4633	185.36	4.07E-01	-1.39E-05	-1.39E+01	0.00E+00	4.07E-01	0.00E+00	10	...........	1505.12
	4635	185.44	4.03E-01	-1.38E-05	-1.38E+01	0.00E+00	4.03E-01	0.00E+00	10	...........	1505.12
	4637	185.52	3.99E-01	-1.36E-05	-1.36E+01	0.00E+00	3.99E-01	0.00E+00	10	...........	1505.12
	4639	185.6	3.95E-01	-1.33E-05	-1.33E+01	0.00E+00	3.95E-01	0.00E+00	10	...........	1505.12
	4641	185.68	3.91E-01	-1.32E-05	-1.32E+01	0.00E+00	3.91E-01	0.00E+00	10	...........	1505.12
	4643	185.76	3.87E-01	-1.32E-05	-1.32E+01	0.00E+00	3.87E-01	0.00E+00	10	...........	1505.12
	4645	185.84	3.83E-01	-1.31E-05	-1.31E+01	0.00E+00	3.83E-01	0.00E+00	10	...........	1505.33
	4647	185.92	3.79E-01	-1.30E-05	-1.30E+01	0.00E+00	3.79E-01	0.00E+00	10	...........	1505.58
	4649	186	3.75E-01	-1.29E-05	-1.29E+01	0.00E+00	3.75E-01	0.00E+00	10	...........	1505.58
	4651	186.08	3.71E-01	-1.28E-05	-1.28E+01	0.00E+00	3.71E-01	0.00E+00	10	...........	1505.58
	4653	186.16	3.67E-01	-1.27E-05	-1.27E+01	0.00E+00	3.67E-01	0.00E+00	10	...........	1505.58
	4655	186.24	3.63E-01	-1.25E-05	-1.25E+01	0.00E+00	3.63E-01	0.00E+00	10	...........	1505.58
	4657	186.32	3.59E-01	-1.24E-05	-1.24E+01	0.00E+00	3.59E-01	0.00E+00	10	...........	1505.58
	4659	186.4	3.55E-01	-1.23E-05	-1.23E+01	0.00E+00	3.55E-01	0.00E+00	10	...........	1505.58
	4661	186.48	3.51E-01	-1.22E-05	-1.22E+01	0.00E+00	3.51E-01	0.00E+00	10	...........	1505.58
	4663	186.56	3.47E-01	-1.23E-05	-1.23E+01	0.00E+00	3.47E-01	0.00E+00	10	...........	1505.58
	4665	186.64	3.43E-01	-1.23E-05	-1.23E+01	0.00E+00	3.43E-01	0.00E+00	10	...........	1505.58
	4667	186.72	3.39E-01	-1.22E-05	-1.22E+01	0.00E+00	3.39E-01	0.00E+00	10	...........	1505.58
	4669	186.8	3.35E-01	-1.20E-05	-1.20E+01	0.00E+00	3.35E-01	0.00E+00	10	...........	1505.58
	4671	186.88	3.31E-01	-1.19E-05	-1.19E+01	0.00E+00	3.31E-01	0.00E+00	10	...........	1505.21
	4673	186.96	3.27E-01	-1.19E-05	-1.19E+01	0.00E+00	3.27E-01	0.00E+00	10	...........	1505.21
	4675	187.04	3.23E-01	-1.20E-05	-1.20E+01	0.00E+00	3.23E-01	0.00E+00	10	...........	1505.21
	4677	187.12	3.19E-01	-1.20E-05	-1.20E+01	0.00E+00	3.19E-01	0.00E+00	10	...........	1505.21
	4679	187.2	3.15E-01	-1.18E-05	-1.18E+01	0.00E+00	3.15E-01	0.00E+00	10	...........	1505.21
	4681	187.28	3.11E-01	-1.17E-05	-1.17E+01	0.00E+00	3.11E-01	0.00E+00	10	...........	1505.21
	4683	187.36	3.07E-01	-1.16E-05	-1.16E+01	0.00E+00	3.07E-01	0.00E+00	10	...........	1505.21
	4685	187.44	3.03E-01	-1.16E-05	-1.16E+01	0.00E+00	3.03E-01	0.00E+00	10	...........	1505.21
	4687	187.52	2.99E-01	-1.15E-05	-1.15E+01	0.00E+00	2.99E-01	0.00E+00	10	...........	1505.21
	4689	187.6	2.95E-01	-1.16E-05	-1.16E+01	0.00E+00	2.95E-01	0.00E+00	10	...........	1505.21
	4691	187.68	2.91E-01	-1.13E-05	-1.13E+01	0.00E+00	2.91E-01	0.00E+00	10	...........	1505.21
	4693	187.76	2.87E-01	-1.13E-05	-1.13E+01	0.00E+00	2.87E-01	0.00E+00	10	...........	1505.21
	4695	187.84	2.83E-01	-1.14E-05	-1.14E+01	0.00E+00	2.83E-01	0.00E+00	10	...........	1505.39
	4697	187.92	2.79E-01	-1.13E-05	-1.13E+01	0.00E+00	2.79E-01	0.00E+00	10	...........	1505.58
	4699	188	2.75E-01	-1.13E-05	-1.13E+01	0.00E+00	2.75E-01	0.00E+00	10	...........	1505.58
	4701	188.08	2.71E-01	-1.12E-05	-1.12E+01	0.00E+00	2.71E-01	0.00E+00	10	...........	1505.58
	4703	188.16	2.67E-01	-1.12E-05	-1.12E+01	0.00E+00	2.67E-01	0.00E+00	10	...........	1505.58
	4705	188.24	2.63E-01	-1.10E-05	-1.10E+01	0.00E+00	2.63E-01	0.00E+00	10	...........	1505.58
	4707	188.32	2.59E-01	-1.10E-05	-1.10E+01	0.00E+00	2.59E-01	0.00E+00	10	...........	1505.58
	4709	188.4	2.55E-01	-1.10E-05	-1.10E+01	0.00E+00	2.55E-01	0.00E+00	10	...........	1505.58
	4711	188.48	2.51E-01	-1.10E-05	-1.10E+01	0.00E+00	2.51E-01	0.00E+00	10	...........	1505.58
	4713	188.56	2.47E-01	-1.10E-05	-1.10E+01	0.00E+00	2.47E-01	0.00E+00	10	...........	1505.58
	4715	188.64	2.43E-01	-1.10E-05	-1.10E+01	0.00E+00	2.43E-01	0.00E+00	10	...........	1505.58
	4717	188.72	2.39E-01	-1.09E-05	-1.09E+01	0.00E+00	2.39E-01	0.00E+00	10	...........	1505.58
	4719	188.8	2.35E-01	-1.09E-05	-1.09E+01	0.00E+00	2.35E-01	0.00E+00	10	...........	1505.58
	4721	188.88	2.31E-01	-1.09E-05	-1.09E+01	0.00E+00	2.31E-01	0.00E+00	10	...........	1505.21
	4723	188.96	2.27E-01	-1.09E-05	-1.09E+01	0.00E+00	2.27E-01	0.00E+00	10	...........	1505.21
	4725	189.04	2.23E-01	-1.10E-05	-1.10E+01	0.00E+00	2.23E-01	0.00E+00	10	...........	1505.21
	4727	189.12	2.19E-01	-1.10E-05	-1.10E+01	0.00E+00	2.19E-01	0.00E+00	10	...........	1505.21
	4729	189.2	2.15E-01	-1.10E-05	-1.10E+01	0.00E+00	2.15E-01	0.00E+00	10	...........	1505.21
	4731	189.28	2.11E-01	-1.10E-05	-1.10E+01	0.00E+00	2.11E-01	0.00E+00	10	...........	1505.21
	4733	189.36	2.07E-01	-1.12E-05	-1.12E+01	0.00E+00	2.07E-01	0.00E+00	10	...........	1505.21
	4735	189.44	2.03E-01	-1.14E-05	-1.14E+01	0.00E+00	2.03E-01	0.00E+00	10	...........	1505.21
	4737	189.52	1.99E-01	-1.15E-05	-1.15E+01	0.00E+00	1.99E-01	0.00E+00	10	...........	1505.21
	4739	189.6	1.95E-01	-1.16E-05	-1.16E+01	0.00E+00	1.95E-01	0.00E+00	10	...........	1505.21
	4741	189.68	1.91E-01	-1.17E-05	-1.17E+01	0.00E+00	1.91E-01	0.00E+00	10	...........	1505.21
	4743	189.76	1.87E-01	-1.21E-05	-1.21E+01	0.00E+00	1.87E-01	0.00E+00	10	...........	1505.21
	4745	189.84	1.83E-01	-1.24E-05	-1.24E+01	0.00E+00	1.83E-01	0.00E+00	10	...........	1505.4
	4747	189.92	1.79E-01	-1.28E-05	-1.28E+01	0.00E+00	1.79E-01	0.00E+00	10	...........	1505.58
	4749	190	1.75E-01	-1.32E-05	-1.32E+01	0.00E+00	1.75E-01	0.00E+00	10	...........	1505.58
	4751	190.08	1.71E-01	-1.37E-05	-1.37E+01	0.00E+00	1.71E-01	0.00E+00	10	...........	1505.58
	4753	190.16	1.67E-01	-1.41E-05	-1.41E+01	0.00E+00	1.67E-01	0.00E+00	10	...........	1505.58
	4755	190.24	1.63E-01	-1.48E-05	-1.48E+01	0.00E+00	1.63E-01	0.00E+00	10	...........	1505.58
	4757	190.32	1.59E-01	-1.55E-05	-1.55E+01	0.00E+00	1.59E-01	0.00E+00	10	...........	1505.58
	4759	190.4	1.55E-01	-1.64E-05	-1.64E+01	0.00E+00	1.55E-01	0.00E+00	10	...........	1505.58
	4761	190.48	1.51E-01	-1.73E-05	-1.73E+01	0.00E+00	1.51E-01	0.00E+00	10	...........	1505.58
	4763	190.56	1.47E-01	-1.84E-05	-1.84E+01	0.00E+00	1.47E-01	0.00E+00	10	...........	1505.58
	4765	190.64	1.43E-01	-1.95E-05	-1.95E+01	0.00E+00	1.43E-01	0.00E+00	10	...........	1505.58
	4767	190.72	1.39E-01	-2.07E-05	-2.07E+01	0.00E+00	1.39E-01	0.00E+00	10	...........	1505.58
	4769	190.8	1.35E-01	-2.21E-05	-2.21E+01	0.00E+00	1.35E-01	0.00E+00	10	...........	1505.58
	4771	190.88	1.31E-01	-2.38E-05	-2.38E+01	0.00E+00	1.31E-01	0.00E+00	10	...........	1505.21
	4773	190.96	1.27E-01	-2.56E-05	-2.56E+01	0.00E+00	1.27E-01	0.00E+00	10	...........	1505.21
	4775	191.04	1.23E-01	-2.75E-05	-2.75E+01	0.00E+00	1.23E-01	0.00E+00	10	...........	1505.21
	4777	191.12	1.19E-01	-2.92E-05	-2.92E+01	0.00E+00	1.19E-01	0.00E+00	10	...........	1505.21
	4779	191.2	1.15E-01	-3.08E-05	-3.08E+01	0.00E+00	1.15E-01	0.00E+00	10	...........	1505.21
	4781	191.28	1.11E-01	-3.26E-05	-3.26E+01	0.00E+00	1.11E-01	0.00E+00	10	...........	1505.21
	4783	191.36	1.07E-01	-3.45E-05	-3.45E+01	0.00E+00	1.07E-01	0.00E+00	10	...........	1505.21
	4785	191.44	1.03E-01	-3.64E-05	-3.64E+01	0.00E+00	1.03E-01	0.00E+00	10	...........	1505.21
	4787	191.52	9.90E-02	-3.80E-05	-3.80E+01	0.00E+00	9.90E-02	0.00E+00	10	...........	1505.21
	4789	191.6	9.50E-02	-3.94E-05	-3.94E+01	0.00E+00	9.50E-02	0.00E+00	10	...........	1505.21
	4791	191.68	9.10E-02	-4.07E-05	-4.07E+01	0.00E+00	9.10E-02	0.00E+00	10	...........	1505.21
	4793	191.76	8.70E-02	-4.19E-05	-4.19E+01	0.00E+00	8.70E-02	0.00E+00	10	...........	1505.21
	4795	191.84	8.30E-02	-4.31E-05	-4.31E+01	0.00E+00	8.30E-02	0.00E+00	10	...........	1505.4
	4797	191.92	7.90E-02	-4.45E-05	-4.45E+01	0.00E+00	7.90E-02	0.00E+00	10	...........	1505.58
	4799	192	7.50E-02	-4.60E-05	-4.60E+01	0.00E+00	7.50E-02	0.00E+00	10	...........	1505.58
	4801	192.08	7.10E-02	-4.79E-05	-4.79E+01	0.00E+00	7.10E-02	0.00E+00	10	...........	1505.58
	4803	192.16	6.70E-02	-5.02E-05	-5.02E+01	0.00E+00	6.70E-02	0.00E+00	10	...........	1505.58
	4805	192.24	6.30E-02	-5.33E-05	-5.33E+01	0.00E+00	6.30E-02	0.00E+00	10	...........	1505.58
	4807	192.32	5.90E-02	-5.66E-05	-5.66E+01	0.00E+00	5.90E-02	0.00E+00	10	...........	1505.58
	4809	192.4	5.50E-02	-6.03E-05	-6.03E+01	0.00E+00	5.50E-02	0.00E+00	10	...........	1505.58
	4811	192.48	5.10E-02	-6.42E-05	-6.42E+01	0.00E+00	5.10E-02	0.00E+00	10	...........	1505.58
	4813	192.56	4.70E-02	-6.83E-05	-6.83E+01	0.00E+00	4.70E-02	0.00E+00	10	...........	1505.58
	4815	192.64	4.30E-02	-7.22E-05	-7.22E+01	0.00E+00	4.30E-02	0.00E+00	10	...........	1505.58
	4817	192.72	3.90E-02	-7.60E-05	-7.60E+01	0.00E+00	3.90E-02	0.00E+00	10	...........	1505.58
	4819	192.8	3.50E-02	-7.97E-05	-7.97E+01	0.00E+00	3.50E-02	0.00E+00	10	...........	1505.58
	4821	192.88	3.10E-02	-8.30E-05	-8.30E+01	0.00E+00	3.10E-02	0.00E+00	10	...........	1505.21
	4823	192.96	2.70E-02	-8.63E-05	-8.63E+01	0.00E+00	2.70E-02	0.00E+00	10	...........	1505.21
	4825	193.04	2.30E-02	-8.94E-05	-8.94E+01	0.00E+00	2.30E-02	0.00E+00	10	...........	1505.21
	4827	193.12	1.90E-02	-9.22E-05	-9.22E+01	0.00E+00	1.90E-02	0.00E+00	10	...........	1505.21
	4829	193.2	1.50E-02	-9.50E-05	-9.50E+01	0.00E+00	1.50E-02	0.00E+00	10	...........	1505.21
	4831	193.28	1.10E-02	-9.76E-05	-9.76E+01	0.00E+00	1.10E-02	0.00E+00	10	...........	1505.21
	4833	193.36	7.00E-03	-9.99E-05	-9.99E+01	0.00E+00	7.00E-03	0.00E+00	10	...........	1505.21
	4835	193.44	3.01E-03	-1.02E-04	-1.02E+02	0.00E+00	3.00E-03	0.00E+00	10	...........	1505.21
	4837	193.52	-9.93E-04	-1.04E-04	-1.04E+02	0.00E+00	-1.00E-03	0.00E+00	10	...........	1505.21
	4839	193.6	-4.98E-03	-1.06E-04	-1.06E+02	0.00E+00	-5.00E-03	0.00E+00	10	...........	1505.21
	4841	193.68	-8.98E-03	-1.07E-04	-1.07E+02	0.00E+00	-9.00E-03	0.00E+00	10	...........	1505.21
	4843	193.76	-1.30E-02	-1.08E-04	-1.08E+02	0.00E+00	-1.30E-02	0.00E+00	10	...........	1505.21
	4845	193.84	-1.70E-02	-1.08E-04	-1.08E+02	0.00E+00	-1.70E-02	0.00E+00	10	...........	1505.41
	4847	193.92	-2.10E-02	-1.07E-04	-1.07E+02	0.00E+00	-2.10E-02	0.00E+00	10	...........	1505.58
	4849	194	-2.50E-02	-1.06E-04	-1.06E+02	0.00E+00	-2.50E-02	0.00E+00	10	...........	1505.58
	4851	194.08	-2.90E-02	-1.04E-04	-1.04E+02	0.00E+00	-2.90E-02	0.00E+00	10	...........	1505.58
	4853	194.16	-3.30E-02	-1.03E-04	-1.03E+02	0.00E+00	-3.30E-02	0.00E+00	10	...........	1505.58
	4855	194.24	-3.70E-02	-1.02E-04	-1.02E+02	0.00E+00	-3.70E-02	0.00E+00	10	...........	1505.58
	4857	194.32	-4.10E-02	-1.01E-04	-1.01E+02	0.00E+00	-4.10E-02	0.00E+00	10	...........	1505.58
	4859	194.4	-4.50E-02	-1.01E-04	-1.01E+02	0.00E+00	-4.50E-02	0.00E+00	10	...........	1505.58
	4861	194.48	-4.90E-02	-1.02E-04	-1.02E+02	0.00E+00	-4.90E-02	0.00E+00	10	...........	1505.58
	4863	194.56	-5.30E-02	-1.04E-04	-1.04E+02	0.00E+00	-5.30E-02	0.00E+00	10	...........	1505.58
	4865	194.64	-5.70E-02	-1.07E-04	-1.07E+02	0.00E+00	-5.70E-02	0.00E+00	10	...........	1505.58
	4867	194.72	-6.10E-02	-1.10E-04	-1.10E+02	0.00E+00	-6.10E-02	0.00E+00	10	...........	1505.58
	4869	194.8	-6.50E-02	-1.14E-04	-1.14E+02	0.00E+00	-6.50E-02	0.00E+00	10	...........	1505.58
	4871	194.88	-6.90E-02	-1.20E-04	-1.20E+02	0.00E+00	-6.90E-02	0.00E+00	10	...........	1505.21
	4873	194.96	-7.30E-02	-1.28E-04	-1.28E+02	0.00E+00	-7.30E-02	0.00E+00	10	...........	1505.21
	4875	195.04	-7.70E-02	-1.38E-04	-1.38E+02	0.00E+00	-7.70E-02	0.00E+00	10	...........	1505.21
	4877	195.12	-8.10E-02	-1.49E-04	-1.49E+02	0.00E+00	-8.10E-02	0.00E+00	10	...........	1505.21
	4879	195.2	-8.50E-02	-1.61E-04	-1.61E+02	0.00E+00	-8.50E-02	0.00E+00	10	...........	1505.21
	4881	195.28	-8.90E-02	-1.74E-04	-1.74E+02	0.00E+00	-8.90E-02	0.00E+00	10	...........	1505.21
	4883	195.36	-9.30E-02	-1.87E-04	-1.87E+02	0.00E+00	-9.30E-02	0.00E+00	10	...........	1505.21
	4885	195.44	-9.70E-02	-1.97E-04	-1.97E+02	0.00E+00	-9.70E-02	0.00E+00	10	...........	1505.21
	4887	195.52	-1.01E-01	-2.04E-04	-2.04E+02	0.00E+00	-1.01E-01	0.00E+00	10	...........	1505.21
	4889	195.6	-1.05E-01	-2.05E-04	-2.05E+02	0.00E+00	-1.05E-01	0.00E+00	10	...........	1505.21
	4891	195.68	-1.09E-01	-2.03E-04	-2.03E+02	0.00E+00	-1.09E-01	0.00E+00	10	...........	1505.21
	4893	195.76	-1.13E-01	-1.98E-04	-1.98E+02	0.00E+00	-1.13E-01	0.00E+00	10	...........	1505.21
	4895	195.84	-1.17E-01	-1.91E-04	-1.91E+02	0.00E+00	-1.17E-01	0.00E+00	10	...........	1505.47
	4897	195.92	-1.21E-01	-1.84E-04	-1.84E+02	0.00E+00	-1.21E-01	0.00E+00	10	...........	1505.67
	4899	196	-1.25E-01	-1.78E-04	-1.78E+02	0.00E+00	-1.25E-01	0.00E+00	10	...........	1505.67
	4901	196.08	-1.29E-01	-1.74E-04	-1.74E+02	0.00E+00	-1.29E-01	0.00E+00	10	...........	1505.67
	4903	196.16	-1.33E-01	-1.71E-04	-1.71E+02	0.00E+00	-1.33E-01	0.00E+00	10	...........	1505.67
	4905	196.24	-1.37E-01	-1.70E-04	-1.70E+02	0.00E+00	-1.37E-01	0.00E+00	10	...........	1505.67
	4907	196.32	-1.41E-01	-1.72E-04	-1.72E+02	0.00E+00	-1.41E-01	0.00E+00	10	...........	1505.67
	4909	196.4	-1.45E-01	-1.76E-04	-1.76E+02	0.00E+00	-1.45E-01	0.00E+00	10	...........	1505.67
	4911	196.48	-1.49E-01	-1.82E-04	-1.82E+02	0.00E+00	-1.49E-01	0.00E+00	10	...........	1505.67
	4913	196.56	-1.53E-01	-1.91E-04	-1.91E+02	0.00E+00	-1.53E-01	0.00E+00	10	...........	1505.67
	4915	196.64	-1.57E-01	-2.04E-04	-2.04E+02	0.00E+00	-1.57E-01	0.00E+00	10	...........	1505.67
	4917	196.72	-1.61E-01	-2.21E-04	-2.21E+02	0.00E+00	-1.61E-01	0.00E+00	10	...........	1505.67
	4919	196.8	-1.65E-01	-2.43E-04	-2.43E+02	0.00E+00	-1.65E-01	0.00E+00	10	...........	1505.67
	4921	196.88	-1.69E-01	-2.74E-04	-2.74E+02	0.00E+00	-1.69E-01	0.00E+00	10	...........	1505.21
	4923	196.96	-1.73E-01	-3.14E-04	-3.14E+02	0.00E+00	-1.73E-01	0.00E+00	10	...........	1505.21
	4925	197.04	-1.77E-01	-3.65E-04	-3.65E+02	0.00E+00	-1.77E-01	0.00E+00	10	...........	1505.21
	4927	197.12	-1.81E-01	-4.26E-04	-4.26E+02	0.00E+00	-1.81E-01	0.00E+00	10	...........	1505.21
	4929	197.2	-1.85E-01	-4.95E-04	-4.95E+02	0.00E+00	-1.85E-01	0.00E+00	10	...........	1505.21
	4931	197.28	-1.89E-01	-5.67E-04	-5.67E+02	0.00E+00	-1.89E-01	0.00E+00	10	...........	1505.21
	4933	197.36	-1.93E-01	-6.43E-04	-6.43E+02	0.00E+00	-1.93E-01	0.00E+00	10	...........	1505.21
	4935	197.44	-1.97E-01	-7.20E-04	-7.20E+02	0.00E+00	-1.97E-01	0.00E+00	10	...........	1505.21
	4937	197.52	-2.01E-01	-7.92E-04	-7.92E+02	0.00E+00	-2.01E-01	0.00E+00	10	...........	1505.21
	4939	197.6	-2.05E-01	-8.52E-04	-8.52E+02	0.00E+00	-2.05E-01	0.00E+00	10	...........	1505.21
	4941	197.68	-2.09E-01	-8.94E-04	-8.94E+02	0.00E+00	-2.09E-01	0.00E+00	10	...........	1505.21
	4943	197.76	-2.13E-01	-9.11E-04	-9.11E+02	0.00E+00	-2.13E-01	0.00E+00	10	...........	1505.21
	4945	197.84	-2.17E-01	-8.99E-04	-8.99E+02	0.00E+00	-2.17E-01	0.00E+00	10	...........	1505.42
	4947	197.92	-2.21E-01	-8.64E-04	-8.64E+02	0.00E+00	-2.21E-01	0.00E+00	10	...........	1505.58
	4949	198	-2.25E-01	-8.20E-04	-8.20E+02	0.00E+00	-2.25E-01	0.00E+00	10	...........	1505.58
	4950	198.04	-2.27E-01	-8.00E-04	-8.00E+02	0.00E+00	-2.27E-01	0.00E+00	10	...........	1505.58
CURVE6	TABLE				0.00E+00
	Pt	T	Vf	Im	#VALUE!	Vu	Sig	Ach	IERange	Over	Temp
	#	s	V vs. Ref.	A	#VALUE!	V	V	V	#	bits	deg C
	4951	198.08	-2.25E-01	-6.38E-04	-6.38E+02	0.00E+00	-2.25E-01	0.00E+00	10	...........	1505.58
	4952	198.12	-2.23E-01	-5.05E-04	-5.05E+02	0.00E+00	-2.23E-01	0.00E+00	10	...........	1505.58
	4953	198.16	-2.21E-01	-3.95E-04	-3.95E+02	0.00E+00	-2.21E-01	0.00E+00	10	...........	1505.58
	4954	198.2	-2.19E-01	-3.01E-04	-3.01E+02	0.00E+00	-2.19E-01	0.00E+00	10	...........	1505.58
	4955	198.24	-2.17E-01	-2.20E-04	-2.20E+02	0.00E+00	-2.17E-01	0.00E+00	10	...........	1505.58
	4956	198.28	-2.15E-01	-1.49E-04	-1.49E+02	0.00E+00	-2.15E-01	0.00E+00	10	...........	1505.58
	4957	198.32	-2.13E-01	-8.57E-05	-8.57E+01	0.00E+00	-2.13E-01	0.00E+00	10	...........	1505.58
	4958	198.36	-2.11E-01	-2.87E-05	-2.87E+01	0.00E+00	-2.11E-01	0.00E+00	10	...........	1505.58
	4959	198.4	-2.09E-01	2.15E-05	2.15E+01	0.00E+00	-2.09E-01	0.00E+00	10	...........	1505.58
	4960	198.44	-2.07E-01	6.79E-05	6.79E+01	0.00E+00	-2.07E-01	0.00E+00	10	...........	1505.58
	4961	198.48	-2.05E-01	1.09E-04	1.09E+02	0.00E+00	-2.05E-01	0.00E+00	10	...........	1505.58
	4962	198.52	-2.03E-01	1.47E-04	1.47E+02	0.00E+00	-2.03E-01	0.00E+00	10	...........	1505.58
	4963	198.56	-2.01E-01	1.81E-04	1.81E+02	0.00E+00	-2.01E-01	0.00E+00	10	...........	1505.58
	4964	198.6	-1.99E-01	2.13E-04	2.13E+02	0.00E+00	-1.99E-01	0.00E+00	10	...........	1505.58
	4965	198.64	-1.97E-01	2.42E-04	2.42E+02	0.00E+00	-1.97E-01	0.00E+00	10	...........	1505.58
	4966	198.68	-1.95E-01	2.69E-04	2.69E+02	0.00E+00	-1.95E-01	0.00E+00	10	...........	1505.58
	4967	198.72	-1.93E-01	2.95E-04	2.95E+02	0.00E+00	-1.93E-01	0.00E+00	10	...........	1505.58
	4968	198.76	-1.91E-01	3.19E-04	3.19E+02	0.00E+00	-1.91E-01	0.00E+00	10	...........	1505.58
	4969	198.8	-1.89E-01	3.43E-04	3.43E+02	0.00E+00	-1.89E-01	0.00E+00	10	...........	1505.58
	4970	198.84	-1.87E-01	3.66E-04	3.66E+02	0.00E+00	-1.87E-01	0.00E+00	10	...........	1505.37
	4971	198.88	-1.85E-01	3.89E-04	3.89E+02	0.00E+00	-1.85E-01	0.00E+00	10	...........	1505.21
	4972	198.92	-1.83E-01	4.12E-04	4.12E+02	0.00E+00	-1.83E-01	0.00E+00	10	...........	1505.21
	4973	198.96	-1.81E-01	4.35E-04	4.35E+02	0.00E+00	-1.81E-01	0.00E+00	10	...........	1505.21
	4974	199	-1.79E-01	4.59E-04	4.59E+02	0.00E+00	-1.79E-01	0.00E+00	10	...........	1505.21
	4975	199.04	-1.77E-01	4.83E-04	4.83E+02	0.00E+00	-1.77E-01	0.00E+00	10	...........	1505.21
	4976	199.08	-1.75E-01	5.09E-04	5.09E+02	0.00E+00	-1.75E-01	0.00E+00	10	...........	1505.21
	4977	199.12	-1.73E-01	5.34E-04	5.34E+02	0.00E+00	-1.73E-01	0.00E+00	10	...........	1505.21
	4978	199.16	-1.71E-01	5.61E-04	5.61E+02	0.00E+00	-1.71E-01	0.00E+00	10	...........	1505.21
	4979	199.2	-1.69E-01	5.88E-04	5.88E+02	0.00E+00	-1.69E-01	0.00E+00	10	...........	1505.21
	4980	199.24	-1.67E-01	6.16E-04	6.16E+02	0.00E+00	-1.67E-01	0.00E+00	10	...........	1505.21
	4981	199.28	-1.65E-01	6.44E-04	6.44E+02	0.00E+00	-1.65E-01	0.00E+00	10	...........	1505.21
	4982	199.32	-1.63E-01	6.72E-04	6.72E+02	0.00E+00	-1.63E-01	0.00E+00	10	...........	1505.21
	4983	199.36	-1.61E-01	7.00E-04	7.00E+02	0.00E+00	-1.61E-01	0.00E+00	10	...........	1505.21
	4984	199.4	-1.59E-01	7.27E-04	7.27E+02	0.00E+00	-1.59E-01	0.00E+00	10	...........	1505.21
	4985	199.44	-1.57E-01	7.53E-04	7.53E+02	0.00E+00	-1.57E-01	0.00E+00	10	...........	1505.21
	4986	199.48	-1.55E-01	7.76E-04	7.76E+02	0.00E+00	-1.55E-01	0.00E+00	10	...........	1505.21
	4987	199.52	-1.53E-01	7.97E-04	7.97E+02	0.00E+00	-1.53E-01	0.00E+00	10	...........	1505.21
	4988	199.56	-1.51E-01	8.14E-04	8.14E+02	0.00E+00	-1.51E-01	0.00E+00	10	...........	1505.21
	4989	199.6	-1.49E-01	8.25E-04	8.25E+02	0.00E+00	-1.49E-01	0.00E+00	10	...........	1505.21
	4990	199.64	-1.47E-01	8.29E-04	8.29E+02	0.00E+00	-1.47E-01	0.00E+00	10	...........	1505.21
	4991	199.68	-1.45E-01	8.25E-04	8.25E+02	0.00E+00	-1.45E-01	0.00E+00	10	...........	1505.21
	4992	199.72	-1.43E-01	8.09E-04	8.09E+02	0.00E+00	-1.43E-01	0.00E+00	10	...........	1505.21
	4993	199.76	-1.41E-01	7.79E-04	7.79E+02	0.00E+00	-1.41E-01	0.00E+00	10	...........	1505.21
	4994	199.8	-1.39E-01	7.29E-04	7.29E+02	0.00E+00	-1.39E-01	0.00E+00	10	...........	1505.21
	4995	199.84	-1.37E-01	6.59E-04	6.59E+02	0.00E+00	-1.37E-01	0.00E+00	10	...........	1505.32
	4996	199.88	-1.35E-01	5.75E-04	5.75E+02	0.00E+00	-1.35E-01	0.00E+00	10	...........	1505.4
	4997	199.92	-1.33E-01	4.90E-04	4.90E+02	0.00E+00	-1.33E-01	0.00E+00	10	...........	1505.4
	4998	199.96	-1.31E-01	4.15E-04	4.15E+02	0.00E+00	-1.31E-01	0.00E+00	10	...........	1505.4
	4999	200	-1.29E-01	3.53E-04	3.53E+02	0.00E+00	-1.29E-01	0.00E+00	10	...........	1505.4
	5000	200.04	-1.27E-01	3.07E-04	3.07E+02	0.00E+00	-1.27E-01	0.00E+00	10	...........	1505.4